time,x,y,z,vx,vy,vz,ax,ay,az,jx,jy,jz,sx,sy,sz,roll,pitch,yaw,p,q,r
0.000000,-3.252595,-0.240150,-1.495305,-0.020687,-0.003818,0.010649,1.007580,-0.319873,-0.207221,-15.776352,5.859677,6.168447,272.428803,-91.022817,-146.003106,-0.031761,-0.100248,0.000000,0.557110,1.497075,-0.000000
0.010000,-3.252754,-0.240203,-1.495208,-0.011355,-0.006738,0.008862,0.862931,-0.265628,-0.152458,-13.203023,5.008902,4.820868,242.636543,-79.314418,-123.902299,-0.026557,-0.086403,0.000000,0.484775,1.273356,-0.000000
0.020000,-3.252826,-0.240283,-1.495126,-0.003347,-0.009157,0.007558,0.742566,-0.219323,-0.110105,-10.915800,4.269831,3.682810,215.190736,-68.673537,-104.078851,-0.022044,-0.074715,0.000000,0.419072,1.066346,0.000000
0.030000,-3.252825,-0.240385,-1.495055,0.003568,-0.011147,0.006625,0.643738,-0.179893,-0.078178,-8.891722,3.632043,2.732097,189.990757,-59.049160,-86.413435,-0.018152,-0.065010,0.000000,0.360364,0.877376,0.000000
0.040000,-3.252758,-0.240505,-1.494993,0.009591,-0.012774,0.005966,0.563927,-0.146377,-0.054909,-7.108834,3.085629,1.947746,166.936064,-50.390271,-70.786678,-0.014813,-0.057103,0.000000,0.308687,0.706944,-0.000000
0.050000,-3.252635,-0.240639,-1.494935,0.014902,-0.014092,0.005503,0.500827,-0.117908,-0.038734,-5.546190,2.621189,1.309965,145.925451,-42.645905,-57.079403,-0.011956,-0.050808,0.000000,0.263836,0.554899,-0.000000
0.060000,-3.252462,-0.240786,-1.494882,0.019656,-0.015147,0.005172,0.452336,-0.093710,-0.028283,-4.183847,2.229833,0.800158,126.858906,-35.764999,-45.172151,-0.009515,-0.045945,0.000000,0.225431,0.420614,0.000000
0.070000,-3.252243,-0.240942,-1.494832,0.023991,-0.015978,0.004922,0.416546,-0.073095,-0.022363,-3.002868,1.903181,0.400920,109.635529,-29.696563,-34.945638,-0.007427,-0.042339,0.000000,0.192981,0.303127,0.000000
0.080000,-3.251983,-0.241105,-1.494783,0.028024,-0.016618,0.004713,0.391734,-0.055457,-0.019950,-1.985328,1.633363,0.096040,94.154573,-24.389590,-26.280533,-0.005637,-0.039830,0.000000,0.165925,0.201255,-0.000000
0.090000,-3.251684,-0.241273,-1.494737,0.031857,-0.017095,0.004515,0.376351,-0.040263,-0.020178,-1.114305,1.413021,-0.129498,80.315148,-19.793076,-19.057487,-0.004093,-0.038267,0.000000,0.143672,0.113692,-0.000000
0.100000,-3.251346,-0.241446,-1.494693,0.035578,-0.017430,0.004303,0.369013,-0.027054,-0.022322,-0.373874,1.235304,-0.289521,68.018110,-15.855971,-13.157376,-0.002750,-0.037513,0.000000,0.125625,0.039075,0.000000
0.110000,-3.250972,-0.241622,-1.494651,0.039260,-0.017642,0.004064,0.368488,-0.015436,-0.025792,0.250863,1.093873,-0.396658,57.160999,-12.527315,-8.460628,-0.001568,-0.037447,0.000000,0.111200,-0.023961,0.000000
0.120000,-3.250561,-0.241799,-1.494612,0.042966,-0.017743,0.003785,0.373691,-0.005075,-0.030117,0.773813,0.982900,-0.462347,47.643814,-9.756078,-4.848011,-0.000515,-0.037958,0.000000,0.099841,-0.076744,0.000000
0.130000,-3.250113,-0.241976,-1.494576,0.046750,-0.017746,0.003460,0.383668,0.004306,-0.034935,1.207871,0.897064,-0.496834,39.365902,-7.491250,-2.200213,0.000437,-0.038951,0.000000,0.091026,-0.120540,-0.000000
0.140000,-3.249626,-0.242153,-1.494543,0.050653,-0.017660,0.003085,0.397592,0.012934,-0.039980,1.564926,0.831557,-0.509170,32.226635,-5.681817,-0.397964,0.001312,-0.040343,0.000000,0.084277,-0.156534,0.000000
0.150000,-3.249099,-0.242329,-1.494514,0.054712,-0.017490,0.002660,0.414747,0.020990,-0.045071,1.855864,0.782079,-0.507214,26.125450,-4.276766,0.677910,0.002128,-0.042060,0.000000,0.079161,-0.185820,0.000000
0.160000,-3.248531,-0.242503,-1.494490,0.058957,-0.017241,0.002184,0.434522,0.028616,-0.050099,2.090558,0.744843,-0.497628,20.961399,-3.225150,1.147536,0.002899,-0.044040,0.000000,0.075294,-0.209390,-0.000000
0.170000,-3.247919,-0.242674,-1.494471,0.063410,-0.016918,0.001658,0.456400,0.035917,-0.055016,2.277881,0.716568,-0.485887,16.634109,-2.475871,1.129302,0.003637,-0.046232,0.000000,0.072341,-0.228136,-0.000000
0.180000,-3.247262,-0.242841,-1.494457,0.068090,-0.016524,0.001084,0.479948,0.042968,-0.059824,2.425694,0.694487,-0.476269,13.042799,-1.977949,0.742833,0.004348,-0.048590,0.000000,0.070019,-0.242846,0.000000
0.190000,-3.246557,-0.243004,-1.494449,0.073013,-0.016060,0.000462,0.504805,0.049820,-0.064559,2.540854,0.676341,-0.471860,10.086687,-1.680358,0.107391,0.005039,-0.051077,0.000000,0.068096,-0.254203,-0.000000
0.200000,-3.245801,-0.243162,-1.494448,0.078190,-0.015528,-0.000207,0.530676,0.056502,-0.069285,2.629216,0.660382,-0.474549,7.665787,-1.532175,-0.657292,0.005711,-0.053664,0.000000,0.066392,-0.262791,0.000000
0.210000,-3.244992,-0.243314,-1.494454,0.083628,-0.014930,-0.000922,0.557058,0.063215,-0.073531,2.636552,0.687537,-0.360394,4.511102,-0.648745,1.031521,0.006386,-0.056303,0.000000,0.069123,-0.263863,0.000000
0.220000,-3.244127,-0.243460,-1.494466,0.089333,-0.014264,-0.001679,0.584173,0.069663,-0.078261,2.818611,0.577243,-0.660491,21.635141,-14.051631,-39.260339,0.007033,-0.059009,0.000000,0.057686,-0.280115,0.000000
0.230000,-3.243204,-0.243599,-1.494487,0.095318,-0.013540,-0.002498,0.612864,0.075128,-0.085672,2.853572,0.561048,-0.688054,-14.914486,11.033150,34.433036,0.007577,-0.061853,0.000000,0.055925,-0.282966,-0.000000
0.240000,-3.242220,-0.243731,-1.494517,0.101586,-0.012759,-0.003383,0.640635,0.081288,-0.090840,2.730151,0.648604,-0.412536,0.698250,-0.971734,-1.322601,0.008193,-0.064615,0.000000,0.064883,-0.271906,-0.000000
0.250000,-3.241172,-0.243854,-1.494555,0.108130,-0.011914,-0.004314,0.668226,0.087531,-0.095608,2.779825,0.604652,-0.527657,-1.116050,-0.407747,0.228780,0.008816,-0.067357,0.000000,0.060265,-0.275772,0.000000
0.260000,-3.240056,-0.243969,-1.494603,0.114951,-0.011009,-0.005297,0.695850,0.093587,-0.100869,2.740575,0.607301,-0.524036,-2.516552,-0.231759,0.391019,0.009419,-0.070096,0.000000,0.060443,-0.271460,0.000000
0.270000,-3.238872,-0.244074,-1.494661,0.122047,-0.010043,-0.006331,0.723334,0.099588,-0.106092,2.768610,0.589194,-0.520812,4.093131,-2.267969,0.352411,0.010016,-0.072816,0.000000,0.058528,-0.273901,-0.000000
0.280000,-3.237615,-0.244170,-1.494730,0.129419,-0.009018,-0.007418,0.750996,0.105427,-0.111275,2.737745,0.585508,-0.514918,-10.367724,1.560915,0.828074,0.010596,-0.075551,0.000000,0.058074,-0.270453,-0.000000
0.290000,-3.236282,-0.244254,-1.494810,0.137064,-0.007934,-0.008557,0.777846,0.111360,-0.116381,2.643846,0.597501,-0.506300,-4.292341,-0.305324,0.793107,0.011184,-0.078202,0.000000,0.059203,-0.260731,-0.000000
0.300000,-3.234872,-0.244328,-1.494901,0.144974,-0.006790,-0.009746,0.804169,0.117289,-0.121405,2.617492,0.588988,-0.498228,-5.045838,-0.266055,0.920278,0.011771,-0.080796,0.000000,0.058268,-0.257787,-0.000000
0.310000,-3.233382,-0.244390,-1.495005,0.153145,-0.005588,-0.010984,0.830034,0.123176,-0.126340,2.553313,0.588706,-0.488594,-5.667955,-0.268077,1.029993,0.012353,-0.083342,0.000000,0.058167,-0.251088,-0.000000
0.320000,-3.231809,-0.244440,-1.495121,0.161573,-0.004327,-0.012272,0.855388,0.129024,-0.131171,2.523831,0.579201,-0.477418,-2.259948,-1.175719,1.178662,0.012930,-0.085834,0.000000,0.057142,-0.247888,-0.000000
0.330000,-3.230150,-0.244476,-1.495250,0.170252,-0.003008,-0.013607,0.880399,0.134781,-0.135886,2.465424,0.574798,-0.465577,-9.473478,0.306970,1.187226,0.013498,-0.088289,0.000000,0.056636,-0.241823,0.000000
0.340000,-3.228403,-0.244500,-1.495393,0.179178,-0.001631,-0.014989,0.904577,0.140542,-0.140481,2.375960,0.575984,-0.453196,-6.344369,-0.536567,1.312795,0.014065,-0.090659,0.000000,0.056698,-0.232692,0.000000
0.350000,-3.226565,-0.244509,-1.495550,0.188341,-0.000197,-0.016417,0.928070,0.146261,-0.144945,2.321193,0.567971,-0.439567,-6.659893,-0.604875,1.386373,0.014628,-0.092958,0.000000,0.055840,-0.227055,0.000000
0.360000,-3.224635,-0.244503,-1.495722,0.197737,0.001294,-0.017888,0.950921,0.151914,-0.149271,2.247956,0.562560,-0.425461,-6.914917,-0.690202,1.450747,0.015183,-0.095192,0.000000,0.055250,-0.219608,0.000000
0.370000,-3.222610,-0.244483,-1.495908,0.207358,0.002841,-0.019402,0.973108,0.157493,-0.153451,2.192832,0.552193,-0.410423,-5.137139,-1.179754,1.538584,0.015731,-0.097359,0.000000,0.054169,-0.213996,0.000000
0.380000,-3.220487,-0.244446,-1.496110,0.217197,0.004443,-0.020956,0.994723,0.162964,-0.157478,2.123625,0.543236,-0.395071,-8.731192,-0.606684,1.529775,0.016267,-0.099468,0.000000,0.053236,-0.207011,-0.000000
0.390000,-3.218265,-0.244394,-1.496328,0.227249,0.006100,-0.022551,1.015522,0.168364,-0.161352,2.039217,0.535892,-0.379517,-7.102433,-1.069969,1.596583,0.016796,-0.101494,0.000000,0.052473,-0.198544,0.000000
0.400000,-3.215942,-0.244324,-1.496561,0.237505,0.007810,-0.024183,1.035585,0.173662,-0.165066,1.972801,0.523571,-0.363311,-7.217907,-1.189293,1.626081,0.017315,-0.103447,0.000000,0.051216,-0.191895,-0.000000
0.410000,-3.213514,-0.244237,-1.496811,0.247959,0.009573,-0.025851,1.054939,0.178838,-0.168618,1.897483,0.511498,-0.347011,-7.306140,-1.317476,1.646552,0.017821,-0.105329,0.000000,0.049992,-0.184388,-0.000000
0.420000,-3.210982,-0.244133,-1.497078,0.258602,0.011386,-0.027555,1.073576,0.183880,-0.172005,1.831672,0.496364,-0.330280,-6.374012,-1.621544,1.684625,0.018313,-0.107139,0.000000,0.048468,-0.177851,-0.000000
0.430000,-3.208342,-0.244009,-1.497362,0.269428,0.013250,-0.029291,1.091546,0.188765,-0.175224,1.759124,0.480911,-0.313629,-8.149478,-1.466962,1.643874,0.018790,-0.108884,0.000000,0.046920,-0.170669,-0.000000
0.440000,-3.205593,-0.243867,-1.497664,0.280430,0.015161,-0.031059,1.108730,0.193498,-0.178278,1.679252,0.465219,-0.297157,-7.297742,-1.761513,1.662700,0.019252,-0.110551,0.000000,0.045355,-0.162784,0.000000
0.450000,-3.202733,-0.243706,-1.497984,0.291600,0.017119,-0.032856,1.125171,0.198058,-0.181166,1.608731,0.446428,-0.280512,-7.327797,-1.908108,1.650914,0.019696,-0.112144,0.000000,0.043486,-0.155846,0.000000
0.460000,-3.199760,-0.243525,-1.498321,0.302931,0.019122,-0.034681,1.140886,0.202425,-0.183889,1.533977,0.426766,-0.264141,-7.346541,-2.059755,1.631045,0.020121,-0.113666,0.000000,0.041537,-0.148508,-0.000000
0.470000,-3.196674,-0.243324,-1.498677,0.314415,0.021167,-0.036533,1.155873,0.206585,-0.186449,1.464353,0.404903,-0.247833,-6.844349,-2.279465,1.620509,0.020526,-0.115117,0.000000,0.039375,-0.141696,0.000000
0.480000,-3.193471,-0.243101,-1.499052,0.326046,0.023253,-0.038410,1.170160,0.210519,-0.188848,1.391504,0.381878,-0.231939,-7.732980,-2.324743,1.556858,0.020909,-0.116500,0.000000,0.037103,-0.134579,0.000000
0.490000,-3.190152,-0.242858,-1.499446,0.337816,0.025377,-0.040310,1.183689,0.214219,-0.191090,1.315107,0.357716,-0.216543,-7.276396,-2.542192,1.530097,0.021268,-0.117808,0.000000,0.034723,-0.127124,0.000000
0.500000,-3.186715,-0.242594,-1.499858,0.349717,0.027536,-0.042231,1.196484,0.217665,-0.193179,1.243705,0.331318,-0.201436,-7.272745,-2.703605,1.481351,0.021602,-0.119045,0.000000,0.032126,-0.120175,0.000000
0.510000,-3.183157,-0.242308,-1.500290,0.361743,0.029729,-0.044173,1.208554,0.220841,-0.195121,1.170343,0.303519,-0.186942,-7.264523,-2.867552,1.425518,0.021910,-0.120211,0.000000,0.029395,-0.113040,0.000000
0.520000,-3.179479,-0.241999,-1.500742,0.373886,0.031952,-0.046133,1.219902,0.223729,-0.196919,1.099662,0.273861,-0.172864,-7.002026,-3.053600,1.380163,0.022190,-0.121307,0.000000,0.026482,-0.106180,-0.000000
0.530000,-3.175679,-0.241668,-1.501213,0.386139,0.034203,-0.048111,1.230542,0.226313,-0.198580,1.027562,0.242670,-0.159543,-7.421899,-3.184255,1.282697,0.022439,-0.122335,0.000000,0.023422,-0.099184,0.000000
0.540000,-3.171756,-0.241315,-1.501704,0.398495,0.036477,-0.050104,1.240447,0.228578,-0.200113,0.953876,0.209955,-0.147052,-7.182940,-3.369879,1.223457,0.022657,-0.123291,0.000000,0.020213,-0.092034,0.000000
0.550000,-3.167709,-0.240939,-1.502215,0.410946,0.038773,-0.052112,1.249630,0.230506,-0.201523,0.882780,0.175364,-0.135171,-7.167177,-3.537542,1.143298,0.022843,-0.124177,0.000000,0.016821,-0.085142,0.000000
0.560000,-3.163537,-0.240539,-1.502747,0.423485,0.041086,-0.054134,1.258098,0.232080,-0.202820,0.810834,0.139127,-0.124240,-7.149709,-3.706503,1.056778,0.022993,-0.124994,0.000000,0.013268,-0.078165,0.000000
0.570000,-3.159239,-0.240117,-1.503298,0.436105,0.043413,-0.056169,1.265853,0.233283,-0.204010,0.740453,0.101264,-0.113917,-6.996356,-3.869277,0.992708,0.023108,-0.125741,0.000000,0.009556,-0.071344,0.000000
0.580000,-3.154815,-0.239671,-1.503870,0.448799,0.045751,-0.058214,1.272905,0.234099,-0.205102,0.669440,0.061676,-0.104702,-7.208062,-4.048426,0.849049,0.023184,-0.126421,0.000000,0.005674,-0.064456,0.000000
0.590000,-3.150263,-0.239202,-1.504462,0.461561,0.048094,-0.060270,1.279239,0.234511,-0.206108,0.597711,0.020362,-0.096662,-7.066861,-4.210941,0.772782,0.023221,-0.127030,0.000000,0.001621,-0.057489,0.000000
0.600000,-3.145583,-0.238709,-1.505075,0.474382,0.050439,-0.062336,1.284865,0.234501,-0.207037,0.527508,-0.022568,-0.089383,-7.043868,-4.378038,0.667953,0.023216,-0.127571,0.000000,-0.002591,-0.050669,0.000000
0.610000,-3.140775,-0.238193,-1.505709,0.487256,0.052782,-0.064411,1.289788,0.234054,-0.207900,0.457068,-0.067218,-0.083289,-7.019223,-4.544509,0.559327,0.023168,-0.128044,0.000000,-0.006975,-0.043816,0.000000
0.620000,-3.135838,-0.237654,-1.506364,0.500175,0.055119,-0.066494,1.294009,0.233152,-0.208706,0.387326,-0.113385,-0.078119,-6.950548,-4.695767,0.465005,0.023076,-0.128448,0.000000,-0.011508,-0.037025,0.000000
0.630000,-3.130771,-0.237091,-1.507039,0.513134,0.057444,-0.068585,1.297534,0.231780,-0.209466,0.317608,-0.161277,-0.074193,-6.993355,-4.882505,0.319415,0.022937,-0.128785,0.000000,-0.016214,-0.030225,-0.000000
0.640000,-3.125575,-0.236505,-1.507735,0.526124,0.059753,-0.070683,1.300361,0.229920,-0.210194,0.247901,-0.210884,-0.071553,-6.926058,-5.031263,0.217421,0.022751,-0.129053,0.000000,-0.021092,-0.023413,0.000000
0.650000,-3.120249,-0.235896,-1.508453,0.539139,0.062041,-0.072789,1.302495,0.227558,-0.210901,0.178916,-0.261955,-0.069926,-6.893137,-5.189775,0.097782,0.022515,-0.129253,0.000000,-0.026116,-0.016662,-0.000000
0.660000,-3.114792,-0.235264,-1.509191,0.552171,0.064302,-0.074901,1.303940,0.224676,-0.211597,0.110209,-0.314555,-0.069642,-6.856152,-5.343505,-0.025089,0.022228,-0.129386,0.000000,-0.031293,-0.009923,-0.000000
0.670000,-3.109205,-0.234610,-1.509951,0.565215,0.066532,-0.077021,1.304700,0.221260,-0.212296,0.041725,-0.368942,-0.070284,-6.832264,-5.519962,-0.119202,0.021889,-0.129452,0.000000,-0.036649,-0.003195,-0.000000
0.680000,-3.103488,-0.233934,-1.510732,0.578263,0.068726,-0.079147,1.304777,0.217293,-0.213008,-0.026260,-0.424662,-0.072357,-6.764177,-5.623098,-0.296021,0.021495,-0.129450,0.000000,-0.042140,0.003500,-0.000000
0.690000,-3.097640,-0.233236,-1.511534,0.591308,0.070876,-0.081281,1.304177,0.212763,-0.213748,-0.093711,-0.481663,-0.075890,-6.733649,-5.789898,-0.394631,0.021045,-0.129382,0.000000,-0.047761,0.010160,-0.000000
0.700000,-3.091662,-0.232516,-1.512357,0.604344,0.072979,-0.083422,1.302903,0.207654,-0.214529,-0.160858,-0.540333,-0.080387,-6.686872,-5.929964,-0.520226,0.020539,-0.129247,0.000000,-0.053549,0.016801,-0.000000
0.710000,-3.085553,-0.231776,-1.513202,0.617364,0.075028,-0.085572,1.300961,0.201952,-0.215361,-0.227472,-0.600397,-0.086351,-6.637527,-6.068343,-0.646978,0.019974,-0.129046,0.000000,-0.059477,0.023408,-0.000000
0.720000,-3.079315,-0.231016,-1.514069,0.630361,0.077016,-0.087730,1.298355,0.195643,-0.216258,-0.293616,-0.661558,-0.093089,-6.588818,-6.176584,-0.725085,0.019349,-0.128779,0.000000,-0.065516,0.029979,0.000000
0.730000,-3.072946,-0.230236,-1.514957,0.643329,0.078938,-0.089897,1.295091,0.188715,-0.217228,-0.359199,-0.724193,-0.101365,-6.527300,-6.350066,-0.930625,0.018663,-0.128446,0.000000,-0.071703,0.036512,-0.000000
0.740000,-3.066448,-0.229437,-1.515867,0.656261,0.080788,-0.092074,1.291173,0.181154,-0.218291,-0.424188,-0.788272,-0.111195,-6.471746,-6.451368,-1.009969,0.017914,-0.128049,0.000000,-0.078036,0.043007,0.000000
0.750000,-3.059821,-0.228621,-1.516798,0.669150,0.082559,-0.094263,1.286609,0.172947,-0.219454,-0.488615,-0.853318,-0.121763,-6.410356,-6.570205,-1.128404,0.017102,-0.127586,0.000000,-0.084464,0.049454,0.000000
0.760000,-3.053065,-0.227786,-1.517752,0.681991,0.084245,-0.096464,1.281403,0.164083,-0.220731,-0.552485,-0.919605,-0.133741,-6.347057,-6.682888,-1.244319,0.016225,-0.127060,0.000000,-0.091016,0.055863,-0.000000
0.770000,-3.046182,-0.226936,-1.518728,0.694776,0.085839,-0.098678,1.275563,0.154552,-0.222131,-0.615398,-0.986924,-0.146431,-6.250495,-6.783110,-1.314508,0.015281,-0.126469,0.000000,-0.097670,0.062186,-0.000000
0.780000,-3.039170,-0.226070,-1.519726,0.707500,0.087334,-0.100907,1.269096,0.144341,-0.223664,-0.677805,-1.055316,-0.160467,-6.230612,-6.894452,-1.492412,0.014271,-0.125816,0.000000,-0.104430,0.068473,-0.000000
0.790000,-3.032032,-0.225190,-1.520746,0.720156,0.088723,-0.103152,1.262008,0.133442,-0.225345,-0.739686,-1.124723,-0.175825,-6.129381,-6.982296,-1.556501,0.013192,-0.125100,0.000000,-0.111288,0.074723,0.000000
0.800000,-3.024767,-0.224296,-1.521789,0.732738,0.090000,-0.105414,1.254307,0.121844,-0.227182,-0.800512,-1.194968,-0.191759,-6.050429,-7.068824,-1.650939,0.012045,-0.124322,0.000000,-0.118226,0.080873,-0.000000
0.810000,-3.017377,-0.223390,-1.522854,0.745240,0.091158,-0.107696,1.246001,0.109540,-0.229184,-0.860469,-1.265944,-0.208779,-5.963417,-7.145522,-1.738413,0.010828,-0.123482,0.000000,-0.125234,0.086948,-0.000000
0.820000,-3.009863,-0.222473,-1.523943,0.757656,0.092189,-0.109999,1.237098,0.096521,-0.231359,-0.919980,-1.338038,-0.226377,-5.915345,-7.252371,-1.792904,0.009540,-0.122583,0.000000,-0.132347,0.092981,0.000000
0.830000,-3.002224,-0.221547,-1.525054,0.769980,0.093086,-0.112324,1.227605,0.082778,-0.233715,-0.978287,-1.410554,-0.244881,-5.744603,-7.248741,-1.906789,0.008181,-0.121623,0.000000,-0.139495,0.098902,-0.000000
0.840000,-2.994463,-0.220612,-1.526189,0.782206,0.093842,-0.114674,1.217537,0.068309,-0.236260,-1.035312,-1.483383,-0.264218,-5.682351,-7.335513,-1.945872,0.006750,-0.120605,0.000000,-0.146668,0.104702,-0.000000
0.850000,-2.986581,-0.219670,-1.527348,0.794329,0.094449,-0.117050,1.206901,0.053107,-0.239000,-1.091723,-1.557068,-0.283877,-5.576228,-7.380339,-1.997101,0.005247,-0.119529,0.000000,-0.153916,0.110438,0.000000
0.860000,-2.978577,-0.218723,-1.528530,0.806343,0.094901,-0.119454,1.195707,0.037167,-0.241939,-1.146750,-1.631079,-0.304109,-5.464137,-7.418165,-2.037031,0.003672,-0.118397,0.000000,-0.161187,0.116039,0.000000
0.870000,-2.970454,-0.217773,-1.529737,0.818241,0.095190,-0.121889,1.183967,0.020485,-0.245082,-1.201346,-1.705384,-0.324468,-5.417434,-7.443298,-2.043811,0.002023,-0.117208,0.000000,-0.168476,0.121590,0.000000
0.880000,-2.962213,-0.216820,-1.530968,0.830020,0.095309,-0.124357,1.171686,0.003058,-0.248430,-1.254309,-1.779956,-0.345178,-5.173210,-7.469740,-2.096403,0.000302,-0.115965,0.000000,-0.175779,0.126977,0.000000
0.890000,-2.953854,-0.215867,-1.532224,0.841673,0.095249,-0.126858,1.158886,-0.015115,-0.251987,-1.305542,-1.854707,-0.366123,-5.109848,-7.476900,-2.078997,-0.001492,-0.114669,0.000000,-0.183086,0.132187,-0.000000
0.900000,-2.945380,-0.214916,-1.533505,0.853196,0.095004,-0.129397,1.145577,-0.034036,-0.255751,-1.356172,-1.929480,-0.386809,-4.978682,-7.477941,-2.066495,-0.003360,-0.113322,0.000000,-0.190379,0.137325,-0.000000
0.910000,-2.936791,-0.213968,-1.534812,0.864583,0.094566,-0.131974,1.131768,-0.053704,-0.259722,-1.405296,-2.004155,-0.407307,-4.845732,-7.467679,-2.037084,-0.005300,-0.111923,0.000000,-0.197647,0.142303,0.000000
0.920000,-2.928089,-0.213025,-1.536145,0.875830,0.093927,-0.134592,1.117475,-0.074120,-0.263897,-1.453077,-2.078913,-0.427556,-4.709461,-7.470450,-2.003561,-0.007313,-0.110476,0.000000,-0.204906,0.147135,0.000000
0.930000,-2.919275,-0.212090,-1.537504,0.886931,0.093081,-0.137253,1.102711,-0.095281,-0.268271,-1.499463,-2.153279,-0.447190,-4.567037,-7.400545,-1.920213,-0.009398,-0.108981,0.000000,-0.212108,0.151812,0.000000
0.940000,-2.910350,-0.211164,-1.538890,0.897883,0.092019,-0.139958,1.087491,-0.117183,-0.272838,-1.544414,-2.227131,-0.466027,-4.422888,-7.380302,-1.850364,-0.011555,-0.107440,0.000000,-0.219241,0.156328,-0.000000
0.950000,-2.901317,-0.210250,-1.540304,0.908680,0.090735,-0.142710,1.071828,-0.139823,-0.277589,-1.587903,-2.300747,-0.484087,-4.274084,-7.329089,-1.751627,-0.013782,-0.105855,0.000000,-0.226331,0.160681,-0.000000
0.960000,-2.892177,-0.209350,-1.541745,0.919318,0.089220,-0.145511,1.055738,-0.163196,-0.282516,-1.629848,-2.373735,-0.500934,-4.121043,-7.267789,-1.631679,-0.016081,-0.104227,0.000000,-0.233340,0.164857,0.000000
0.970000,-2.882932,-0.208467,-1.543214,0.929793,0.087468,-0.148361,1.039236,-0.187296,-0.287605,-1.670373,-2.446078,-0.516812,-3.976909,-7.197867,-1.523756,-0.018449,-0.102558,0.000000,-0.240265,0.168872,0.000000
0.980000,-2.873582,-0.207602,-1.544712,0.940101,0.085472,-0.151263,1.022336,-0.212115,-0.292846,-1.709240,-2.517631,-0.530989,-3.795719,-7.110755,-1.307487,-0.020886,-0.100850,0.000000,-0.247093,0.172696,0.000000
0.990000,-2.864130,-0.206758,-1.546239,0.950238,0.083224,-0.154218,1.005057,-0.237645,-0.298218,-1.746407,-2.588279,-0.543228,-3.643646,-7.018302,-1.153620,-0.023390,-0.099104,0.000000,-0.253815,0.176323,0.000000
1.000000,-2.854578,-0.205938,-1.547797,0.960201,0.080717,-0.157228,0.987413,-0.263877,-0.303705,-1.782053,-2.657948,-0.553840,-3.477892,-6.912429,-0.948522,-0.025962,-0.097323,0.000000,-0.260421,0.179773,0.000000
1.010000,-2.844927,-0.205145,-1.549384,0.969986,0.077944,-0.160293,0.969421,-0.290801,-0.309286,-1.815984,-2.726484,-0.561822,-3.309324,-6.794820,-0.713860,-0.028598,-0.095508,0.000000,-0.266902,0.183021,0.000000
1.020000,-2.835179,-0.204380,-1.551003,0.979588,0.074898,-0.163414,0.951099,-0.318403,-0.314939,-1.848243,-2.793825,-0.568682,-3.140659,-6.669454,-0.586468,-0.031299,-0.093661,0.000000,-0.273247,0.186086,-0.000000
1.030000,-2.825336,-0.203648,-1.552653,0.989006,0.071574,-0.166592,0.932462,-0.346672,-0.320647,-1.878761,-2.859790,-0.572047,-2.962510,-6.521359,-0.080203,-0.034063,-0.091785,0.000000,-0.279447,0.188939,0.000000
1.040000,-2.815399,-0.202950,-1.554335,0.998237,0.067963,-0.169827,0.913529,-0.375594,-0.326367,-1.907513,-2.924254,-0.571578,-2.788914,-6.371590,0.109451,-0.036888,-0.089881,0.000000,-0.285495,0.191580,-0.000000
1.050000,-2.805372,-0.202289,-1.556049,1.007276,0.064060,-0.173119,0.894318,-0.405152,-0.332074,-1.934514,-2.987163,-0.569196,-2.610295,-6.206023,0.439627,-0.039772,-0.087951,0.000000,-0.291380,0.194027,0.000000
1.060000,-2.795254,-0.201670,-1.557797,1.016122,0.059858,-0.176468,0.874843,-0.435332,-0.337737,-1.960305,-3.048548,-0.562755,-2.441644,-6.032226,0.796634,-0.042715,-0.085998,0.000000,-0.297117,0.196318,-0.000000
1.070000,-2.785050,-0.201093,-1.559579,1.024772,0.055351,-0.179874,0.855126,-0.466114,-0.343321,-1.982365,-3.107428,-0.553697,-2.072763,-5.777151,1.073556,-0.045714,-0.084023,0.000000,-0.302607,0.198221,-0.000000
1.080000,-2.774760,-0.200564,-1.561395,1.033224,0.050534,-0.183334,0.835196,-0.497476,-0.348795,-2.003907,-3.164794,-0.540055,-2.238367,-5.695080,1.660691,-0.048767,-0.082030,0.000000,-0.307960,0.200037,0.000000
1.090000,-2.764386,-0.200084,-1.563246,1.041475,0.045400,-0.186849,0.815048,-0.529405,-0.354105,-2.025045,-3.220565,-0.521503,-1.884976,-5.420877,1.998923,-0.051873,-0.080018,0.000000,-0.313176,0.201778,0.000000
1.100000,-2.753931,-0.199657,-1.565132,1.049524,0.039944,-0.190416,0.794709,-0.561877,-0.359214,-2.042473,-3.273470,-0.499521,-1.703645,-5.193728,2.455997,-0.055029,-0.077990,0.000000,-0.318126,0.203137,0.000000
1.110000,-2.743396,-0.199286,-1.567054,1.057369,0.034160,-0.194032,0.774203,-0.594868,-0.364076,-2.058547,-3.324227,-0.471919,-1.511738,-4.950643,2.947838,-0.058234,-0.075949,0.000000,-0.322899,0.204330,-0.000000
1.120000,-2.732784,-0.198975,-1.569013,1.065008,0.028045,-0.197696,0.753545,-0.628353,-0.368646,-2.072703,-3.372393,-0.441594,-1.317574,-4.684482,3.238362,-0.061486,-0.073897,0.000000,-0.327442,0.205328,-0.000000
1.130000,-2.722097,-0.198726,-1.571008,1.072439,0.021592,-0.201404,0.732755,-0.662307,-0.372885,-2.084859,-3.417959,-0.404608,-1.112719,-4.426483,4.166587,-0.064783,-0.071836,0.000000,-0.331782,0.206098,-0.000000
1.140000,-2.711336,-0.198544,-1.573041,1.079663,0.014797,-0.205153,0.711855,-0.696703,-0.376713,-2.094963,-3.460782,-0.360556,-0.908266,-4.130963,4.529270,-0.068121,-0.069767,0.000000,-0.335917,0.206638,-0.000000
1.150000,-2.700504,-0.198431,-1.575111,1.086676,0.007656,-0.208937,0.690863,-0.731512,-0.380086,-2.103001,-3.500564,-0.312946,-0.696599,-3.827306,5.115225,-0.071500,-0.067694,0.000000,-0.339805,0.206975,-0.000000
1.160000,-2.689603,-0.198392,-1.577220,1.093480,0.000165,-0.212753,0.669802,-0.766704,-0.382946,-2.108924,-3.537283,-0.257984,-0.479678,-3.507900,5.732512,-0.074917,-0.065618,0.000000,-0.343475,0.207084,0.000000
1.170000,-2.678635,-0.198429,-1.579367,1.100072,-0.007679,-0.216594,0.648692,-0.802247,-0.385237,-2.112504,-3.570614,-0.199591,-0.242489,-3.161227,6.093386,-0.078369,-0.063541,0.000000,-0.346878,0.206973,-0.000000
1.180000,-2.667602,-0.198547,-1.581552,1.106453,-0.015881,-0.220455,0.627559,-0.838105,-0.386910,-2.113902,-3.600568,-0.133027,-0.036154,-2.826862,7.227023,-0.081854,-0.061466,0.000000,-0.350058,0.206632,0.000000
1.190000,-2.656507,-0.198748,-1.583776,1.112623,-0.024442,-0.224330,0.606422,-0.874246,-0.387868,-2.113058,-3.626981,-0.057902,0.213606,-2.447103,7.655661,-0.085369,-0.059396,0.000000,-0.353015,0.206059,-0.000000
1.200000,-2.645351,-0.199037,-1.586038,1.118582,-0.033366,-0.228210,0.585306,-0.910632,-0.388057,-2.109667,-3.649499,0.021376,0.458666,-2.059152,8.347518,-0.088913,-0.057331,0.000000,-0.355689,0.205256,-0.000000
1.210000,-2.634136,-0.199417,-1.588340,1.124330,-0.042655,-0.232088,0.564234,-0.947224,-0.387410,-2.104367,-3.668256,0.109135,0.701500,-1.656337,9.061955,-0.092482,-0.055275,0.000000,-0.358139,0.204266,0.000000
1.220000,-2.622865,-0.199891,-1.590680,1.129867,-0.052311,-0.235955,0.543235,-0.983981,-0.385862,-2.094699,-3.682262,0.201338,1.137948,-1.173576,9.520368,-0.096074,-0.053230,0.000000,-0.360245,0.202875,-0.000000
1.230000,-2.611539,-0.200464,-1.593059,1.135195,-0.062335,-0.239802,0.522344,-1.020856,-0.383353,-2.083587,-3.692330,0.302513,1.083143,-0.837642,10.720689,-0.099686,-0.051199,0.000000,-0.362137,0.201350,-0.000000
1.240000,-2.600162,-0.201139,-1.595476,1.140314,-0.072729,-0.243619,0.501567,-1.057814,-0.379779,-2.071062,-3.698307,0.412957,1.520544,-0.322278,11.228502,-0.103317,-0.049183,0.000000,-0.363819,0.199697,-0.000000
1.250000,-2.588734,-0.201920,-1.597931,1.145226,-0.083492,-0.247394,0.480940,-1.094804,-0.375080,-2.053958,-3.698980,0.528305,1.805774,0.159181,11.982570,-0.106962,-0.047185,0.000000,-0.365140,0.197635,0.000000
1.260000,-2.577258,-0.202810,-1.600424,1.149933,-0.094625,-0.251116,0.460495,-1.131778,-0.369180,-2.034572,-3.694889,0.653120,2.106402,0.663622,12.757028,-0.110619,-0.045208,0.000000,-0.366211,0.195370,-0.000000
1.270000,-2.565736,-0.203813,-1.602953,1.154437,-0.106127,-0.254773,0.440261,-1.168685,-0.362010,-2.011482,-3.685624,0.781391,2.482306,1.192026,13.114489,-0.114285,-0.043255,0.000000,-0.366938,0.192793,-0.000000
1.280000,-2.554170,-0.204934,-1.605519,1.158740,-0.117998,-0.258352,0.420275,-1.205472,-0.353516,-1.985544,-3.671000,0.919966,2.706840,1.736478,14.606760,-0.117956,-0.041328,0.000000,-0.367390,0.189961,0.000000
1.290000,-2.542562,-0.206175,-1.608120,1.162843,-0.130236,-0.261839,0.400560,-1.242086,-0.343573,-1.956648,-3.650794,1.069115,3.107347,2.309757,15.002586,-0.121631,-0.039430,0.000000,-0.367565,0.186868,0.000000
1.300000,-2.530913,-0.207540,-1.610755,1.166752,-0.142839,-0.265219,0.381156,-1.278469,-0.332125,-1.923608,-3.624737,1.221856,3.471042,2.904449,15.762254,-0.125306,-0.037564,0.000000,-0.367364,0.183427,-0.000000
1.310000,-2.519227,-0.209033,-1.613424,1.170468,-0.155804,-0.268476,0.362101,-1.314560,-0.319103,-1.886761,-3.592433,1.384012,3.859696,3.526928,16.513038,-0.128978,-0.035733,0.000000,-0.366829,0.179650,0.000000
1.320000,-2.507505,-0.210657,-1.616125,1.173995,-0.169129,-0.271595,0.343431,-1.350299,-0.304433,-1.846736,-3.554424,1.550649,4.189358,4.111366,16.960535,-0.132642,-0.033941,0.000000,-0.365962,0.175618,-0.000000
1.330000,-2.495748,-0.212416,-1.618855,1.177338,-0.182809,-0.274559,0.325182,-1.385625,-0.288059,-1.802052,-3.509441,1.726290,4.752157,4.890421,18.168594,-0.136296,-0.032191,0.000000,-0.364705,0.171169,-0.000000
1.340000,-2.483959,-0.214314,-1.621615,1.180500,-0.196840,-0.277350,0.307406,-1.420463,-0.269876,-1.752445,-3.457188,1.910923,5.131694,5.531803,18.603081,-0.139935,-0.030488,0.000000,-0.363041,0.166277,-0.000000
1.350000,-2.472138,-0.216354,-1.624402,1.183488,-0.211216,-0.279950,0.290145,-1.454747,-0.249829,-1.698989,-3.398441,2.099538,5.603475,6.254441,19.264895,-0.143555,-0.028834,0.000000,-0.360987,0.161060,0.000000
1.360000,-2.460289,-0.218540,-1.627213,1.186305,-0.225933,-0.282340,0.273447,-1.488402,-0.227856,-1.639818,-3.331040,2.296303,6.109182,7.023762,19.904273,-0.147152,-0.027235,0.000000,-0.358393,0.155318,-0.000000
1.370000,-2.448413,-0.220874,-1.630048,1.188959,-0.240982,-0.284501,0.257356,-1.521359,-0.203897,-1.577882,-3.259779,2.495860,6.403559,7.432946,20.173328,-0.150723,-0.025694,0.000000,-0.355657,0.149351,0.000000
1.380000,-2.436511,-0.223361,-1.632903,1.191454,-0.256357,-0.286412,0.241913,-1.553561,-0.177911,-1.509111,-3.178095,2.703257,7.358539,8.914131,21.303957,-0.154263,-0.024216,0.000000,-0.352215,0.142738,-0.000000
1.390000,-2.424584,-0.226002,-1.635775,1.193799,-0.272050,-0.288052,0.227199,-1.584883,-0.149805,-1.433096,-3.085464,2.918286,7.725524,9.414009,21.519216,-0.157764,-0.022808,0.000000,-0.348014,0.135430,-0.000000
1.400000,-2.412635,-0.228803,-1.638663,1.196001,-0.288052,-0.289401,0.213261,-1.615258,-0.119543,-1.353473,-2.988020,3.134940,8.325294,10.280087,21.977144,-0.161223,-0.021474,0.000000,-0.343565,0.127788,-0.000000
1.410000,-2.400665,-0.231764,-1.641562,1.198067,-0.304352,-0.290436,0.200166,-1.644608,-0.087087,-1.264088,-2.880478,3.357010,9.002083,11.163623,22.372546,-0.164633,-0.020222,0.000000,-0.338401,0.119180,-0.000000
1.420000,-2.388674,-0.234891,-1.644470,1.200007,-0.320940,-0.291135,0.187957,-1.672843,-0.052395,-1.178450,-2.765305,3.581683,8.665963,11.940868,22.603587,-0.167989,-0.019056,0.000000,-0.332721,0.110943,0.000000
1.430000,-2.376665,-0.238184,-1.647384,1.201829,-0.337805,-0.291476,0.176645,-1.699880,-0.015441,-1.079428,-2.640197,3.809957,11.158256,13.086347,23.041131,-0.171285,-0.017976,0.000000,-0.326299,0.101351,-0.000000
1.440000,-2.364638,-0.241648,-1.650299,1.203544,-0.354934,-0.291436,0.166420,-1.725612,0.023814,-0.966092,-2.504857,4.041196,10.969405,13.917721,23.140790,-0.174513,-0.017004,0.000000,-0.319083,0.090279,-0.000000
1.450000,-2.352594,-0.245284,-1.653211,1.205161,-0.372313,-0.290992,0.157305,-1.749951,0.065384,-0.855389,-2.361210,4.272960,11.713827,14.881428,23.251118,-0.177665,-0.016141,0.000000,-0.311213,0.079411,-0.000000
1.460000,-2.340535,-0.249095,-1.656117,1.206694,-0.389928,-0.290121,0.149367,-1.772780,0.109277,-0.730654,-2.202253,4.505614,12.513495,15.962695,23.273096,-0.180732,-0.015396,0.000000,-0.301971,0.067042,-0.000000
1.470000,-2.328461,-0.253083,-1.659012,1.208153,-0.407763,-0.288799,0.142660,-1.794037,0.155496,-0.611741,-2.050652,4.738203,11.969313,15.280544,23.220998,-0.183709,-0.014775,0.000000,-0.293587,0.055155,0.000000
1.480000,-2.316372,-0.257251,-1.661891,1.209551,-0.425803,-0.287003,0.137191,-1.813713,0.204036,-0.476575,-1.877275,4.969541,15.084926,19.424279,23.030119,-0.186596,-0.014281,0.000000,-0.283101,0.041482,0.000000
1.490000,-2.304270,-0.261600,-1.664750,1.210902,-0.444031,-0.284710,0.133192,-1.831498,0.254879,-0.324228,-1.680803,5.198639,14.676042,18.939456,22.780764,-0.189362,-0.013938,0.000000,-0.270306,0.025872,0.000000
1.500000,-2.292154,-0.266132,-1.667584,1.212220,-0.462427,-0.281898,0.130677,-1.847367,0.307999,-0.177103,-1.490606,5.424728,15.450551,20.025816,22.410969,-0.192005,-0.013752,0.000000,-0.258116,0.010587,0.000000
1.510000,-2.280026,-0.270849,-1.670386,1.213520,-0.480972,-0.278543,0.129642,-1.861276,0.363347,-0.030078,-1.290186,5.643633,15.940338,20.943153,21.873490,-0.194520,-0.013723,0.000000,-0.244749,-0.004919,-0.000000
1.520000,-2.267884,-0.275752,-1.673153,1.214818,-0.499645,-0.274623,0.130253,-1.873068,0.420895,0.159939,-1.063630,5.866623,20.130031,23.504594,22.198456,-0.196890,-0.013872,0.000000,-0.228738,-0.025201,0.000000
1.530000,-2.255729,-0.280842,-1.675877,1.216132,-0.518425,-0.270118,0.132766,-1.882559,0.480632,0.331946,-0.838225,6.076573,14.208590,21.546477,19.756069,-0.199095,-0.014230,0.000000,-0.212479,-0.043955,0.000000
1.540000,-2.243561,-0.286120,-1.678553,1.217478,-0.537289,-0.265004,0.136807,-1.889848,0.542372,0.483112,-0.615345,6.271597,17.971369,23.895471,19.740149,-0.201140,-0.014761,0.000000,-0.196035,-0.060853,-0.000000
1.550000,-2.231379,-0.291588,-1.681175,1.218874,-0.556214,-0.259264,0.142598,-1.894768,0.606073,0.674800,-0.367760,6.466625,18.423041,24.751813,18.735080,-0.203005,-0.015492,0.000000,-0.176814,-0.082453,0.000000
1.560000,-2.219183,-0.297245,-1.683736,1.220337,-0.575176,-0.252876,0.150347,-1.897178,0.671642,0.878132,-0.112215,6.644941,19.317306,25.713684,17.566264,-0.204671,-0.016451,0.000000,-0.156122,-0.105772,0.000000
1.570000,-2.206972,-0.303091,-1.686230,1.221887,-0.594149,-0.245825,0.159952,-1.897033,0.738984,1.034201,0.140548,6.823600,14.731738,25.455333,17.505767,-0.206129,-0.017632,0.000000,-0.135412,-0.124543,0.000000
1.580000,-2.194745,-0.309128,-1.688650,1.223541,-0.613108,-0.238091,0.171192,-1.894307,0.808039,1.232284,0.409831,6.981227,24.969359,28.415619,13.979273,-0.207370,-0.019015,0.000000,-0.112079,-0.148337,0.000000
1.590000,-2.182501,-0.315353,-1.690990,1.225319,-0.632026,-0.229659,0.184773,-1.888774,0.878527,1.476070,0.696191,7.115709,20.916470,28.223901,13.542285,-0.208360,-0.020685,0.000000,-0.085880,-0.177741,-0.000000
1.600000,-2.170239,-0.321768,-1.693241,1.227244,-0.650874,-0.220516,0.200514,-1.880404,0.950352,1.674790,0.979504,7.246187,21.675954,29.056653,11.890295,-0.209088,-0.022628,0.000000,-0.059349,-0.202922,-0.000000
1.610000,-2.157956,-0.328371,-1.695398,1.229336,-0.669624,-0.210648,0.218356,-1.869122,1.023362,1.894633,1.278823,7.352531,22.203864,29.904420,10.080935,-0.209536,-0.024846,0.000000,-0.029853,-0.231108,0.000000
1.620000,-2.145651,-0.335160,-1.697452,1.231618,-0.688247,-0.200045,0.238416,-1.854873,1.097399,2.117915,1.569189,7.454065,22.515381,29.027273,9.506504,-0.209688,-0.027358,0.000000,-0.000464,-0.260466,0.000000
1.630000,-2.133323,-0.342135,-1.699396,1.234112,-0.706712,-0.188697,0.260732,-1.837672,1.172345,2.346251,1.877388,7.527585,23.139263,32.628776,5.157659,-0.209533,-0.030176,0.000000,0.032372,-0.291155,0.000000
1.640000,-2.120968,-0.349294,-1.701223,1.236840,-0.724989,-0.176597,0.285356,-1.817257,1.247845,2.578858,2.203969,7.571035,23.289165,31.798661,4.222300,-0.209027,-0.033315,0.000000,0.068928,-0.323106,0.000000
1.650000,-2.108585,-0.356634,-1.702926,1.239827,-0.743047,-0.163739,0.312311,-1.793642,1.323749,2.812325,2.520534,7.605692,23.461752,32.373630,1.987328,-0.208156,-0.036785,0.000000,0.105630,-0.356033,0.000000
1.660000,-2.096171,-0.364154,-1.704495,1.243094,-0.760852,-0.150121,0.341545,-1.766874,1.399840,3.032743,2.831781,7.608117,23.223535,32.511365,-0.418814,-0.206911,-0.040589,0.000000,0.143590,-0.388227,-0.000000
1.670000,-2.083722,-0.371850,-1.705925,1.246666,-0.778373,-0.135742,0.373168,-1.736788,1.475918,3.300517,3.194852,7.607137,27.768220,37.516584,-0.856488,-0.205255,-0.044746,0.000000,0.188817,-0.426870,0.000000
1.680000,-2.071236,-0.379720,-1.707208,1.250567,-0.795575,-0.120603,0.407423,-1.703097,1.551849,3.534312,3.527831,7.568355,18.891706,28.984984,-6.944933,-0.203141,-0.049296,0.000000,0.232818,-0.462338,0.000000
1.690000,-2.058710,-0.387760,-1.708335,1.254821,-0.812425,-0.104707,0.443706,-1.666366,1.627144,3.729418,3.826308,7.489584,22.677889,33.293456,-7.743230,-0.200607,-0.054171,0.000000,0.274986,-0.493803,0.000000
1.700000,-2.046139,-0.395967,-1.709299,1.259448,-0.828892,-0.088063,0.482193,-1.626370,1.701638,3.965687,4.171400,7.404171,21.997643,33.124633,-10.420201,-0.197612,-0.059399,0.000000,0.324164,-0.530937,0.000000
1.710000,-2.033519,-0.404337,-1.710094,1.264472,-0.844941,-0.070678,0.522878,-1.582836,1.775107,4.168407,4.539995,7.285002,21.090608,33.796379,-13.105370,-0.194104,-0.064984,0.000000,0.378349,-0.564549,0.000000
1.720000,-2.020848,-0.412865,-1.710711,1.269913,-0.860537,-0.052565,0.565738,-1.536100,1.847273,4.410745,4.784595,7.144866,24.877385,21.688235,-15.231838,-0.190103,-0.070929,0.000000,0.419568,-0.603501,0.000000
1.730000,-2.008120,-0.421546,-1.711143,1.275795,-0.875655,-0.033738,0.610942,-1.486821,1.917899,4.613512,5.111567,6.973881,15.586049,43.889158,-18.976709,-0.185668,-0.077258,0.000000,0.472538,-0.637933,-0.000000
1.740000,-1.995330,-0.430376,-1.711383,1.282137,-0.890260,-0.014213,0.657842,-1.433516,1.986644,4.772519,5.528700,6.771499,18.714524,32.863613,-21.190803,-0.180602,-0.083890,0.000000,0.538618,-0.666995,-0.000000
1.750000,-1.982475,-0.439349,-1.711425,1.288958,-0.904314,0.005988,0.706553,-1.376767,2.053262,4.966330,5.824654,6.547467,17.540640,32.918206,-23.921910,-0.174954,-0.090838,0.000000,0.591583,-0.700389,0.000000
1.760000,-1.969550,-0.448460,-1.711261,1.296275,-0.917786,0.026844,0.757235,-1.317165,2.117488,5.173054,6.086562,6.293067,17.217215,31.051564,-26.648301,-0.168782,-0.098122,0.000000,0.641894,-0.735185,0.000000
1.770000,-1.956548,-0.457703,-1.710886,1.304108,-0.930646,0.048329,0.809467,-1.254157,2.179058,5.249984,6.551945,6.017419,4.544767,50.714867,-28.771090,-0.162002,-0.105682,0.000000,0.718960,-0.753057,0.000000
1.780000,-1.943466,-0.467071,-1.710292,1.312466,-0.942853,0.070415,0.862518,-1.186722,2.237734,5.397807,6.863458,5.711577,25.208128,11.207416,-32.397888,-0.154472,-0.113416,0.000000,0.778237,-0.779135,0.000000
1.790000,-1.930297,-0.476558,-1.709475,1.321366,-0.954376,0.093073,0.917738,-1.117547,2.293187,5.624715,7.003747,5.375657,13.712682,28.213699,-34.475754,-0.146520,-0.121490,0.000000,0.816391,-0.814504,-0.000000
1.800000,-1.917036,-0.486156,-1.708429,1.330826,-0.965195,0.116268,0.974483,-1.045827,2.345186,5.726468,7.330650,5.019772,13.044734,25.799950,-36.986456,-0.138039,-0.129809,0.000000,0.878633,-0.832592,-0.000000
1.810000,-1.903679,-0.495859,-1.707148,1.340859,-0.975282,0.139964,1.032263,-0.971154,2.393499,5.824093,7.604093,4.639146,11.309502,24.511584,-39.363823,-0.128975,-0.138296,0.000000,0.934114,-0.848665,0.000000
1.820000,-1.890217,-0.505659,-1.705628,1.351475,-0.984610,0.164124,1.091299,-0.894144,2.437871,5.996864,7.780507,4.230616,18.518402,14.997010,-42.090580,-0.119409,-0.146963,0.000000,0.976720,-0.872876,-0.000000
1.830000,-1.876647,-0.515549,-1.703865,1.362691,-0.993160,0.188708,1.151917,-0.815393,2.478049,6.095254,7.992783,3.802621,0.992863,27.582170,-43.481204,-0.109424,-0.155835,0.000000,1.022970,-0.885494,-0.000000
1.840000,-1.862961,-0.525520,-1.701853,1.374515,-1.000910,0.213671,1.212893,-0.734117,2.513866,6.111537,8.246308,3.356685,6.996061,18.839534,-45.919673,-0.098931,-0.164731,0.000000,1.073369,-0.885188,-0.000000
1.850000,-1.849155,-0.535564,-1.699590,1.386951,-1.007836,0.238970,1.274453,-0.650855,2.545098,6.194475,8.405749,2.886691,4.838427,17.304840,-47.819510,-0.088013,-0.173659,0.000000,1.109781,-0.891362,0.000000
1.860000,-1.835220,-0.545674,-1.697073,1.400005,-1.013921,0.264557,1.336497,-0.565832,2.571567,6.207731,8.599448,2.404733,2.383555,16.050288,-49.480500,-0.076720,-0.182583,0.000000,1.148567,-0.886038,-0.000000
1.870000,-1.821153,-0.555840,-1.694298,1.413682,-1.019147,0.290384,1.398897,-0.479345,2.593064,6.284093,8.677102,1.889018,8.432150,4.686152,-52.728664,-0.065114,-0.191461,0.000000,1.169540,-0.886228,0.000000
1.880000,-1.806945,-0.566054,-1.691264,1.427985,-1.023506,0.316401,1.461887,-0.392092,2.609342,6.282853,8.802456,1.369749,-8.823443,20.533760,-51.068190,-0.053313,-0.200299,0.000000,1.193941,-0.873846,-0.000000
1.890000,-1.792591,-0.576307,-1.687970,1.442917,-1.026983,0.342554,1.524239,-0.303075,2.620464,6.197573,8.981921,0.849903,-3.741325,10.074733,-53.786292,-0.041215,-0.208915,0.000000,1.222609,-0.848211,-0.000000
1.900000,-1.778084,-0.586591,-1.684413,1.458469,-1.029563,0.368792,1.586109,-0.212923,2.626232,6.169971,9.048283,0.302403,-6.248924,8.425730,-54.770368,-0.028934,-0.217304,0.000000,1.232963,-0.827470,0.000000
1.910000,-1.763419,-0.596895,-1.680594,1.474638,-1.031240,0.395061,1.647646,-0.122324,2.626522,6.139310,9.060215,-0.245255,-7.569637,5.075111,-55.534570,-0.016596,-0.225466,0.000000,1.232625,-0.804378,-0.000000
1.920000,-1.748589,-0.607212,-1.676512,1.491419,-1.032008,0.421304,1.708227,-0.030927,2.621239,5.947961,9.251849,-0.815053,-23.225008,22.429703,-57.611145,-0.004186,-0.233298,0.000000,1.253329,-0.757667,0.000000
1.930000,-1.733589,-0.617532,-1.672168,1.508795,-1.031852,0.447466,1.766911,0.062094,2.610241,5.831744,9.281653,-1.380414,0.222496,-16.818151,-55.403485,0.008376,-0.240656,0.000000,1.248838,-0.719574,0.000000
1.940000,-1.718412,-0.627846,-1.667563,1.526756,-1.030770,0.473490,1.825207,0.154028,2.593662,5.801489,9.133910,-1.938261,-13.805860,-1.826843,-56.920977,0.020690,-0.247732,0.000000,1.217386,-0.691603,-0.000000
1.950000,-1.703052,-0.638145,-1.662699,1.545295,-1.028773,0.499321,1.882305,0.245517,2.571411,5.619729,9.152451,-2.511455,-15.028482,-5.337130,-56.897176,0.032814,-0.254403,0.000000,1.205527,-0.642332,0.000000
1.960000,-1.687504,-0.648419,-1.657577,1.564396,-1.025860,0.524900,1.937618,0.336871,2.543486,5.437156,9.117947,-3.072238,-17.190800,-7.466610,-56.569848,0.044764,-0.260587,0.000000,1.184025,-0.592729,-0.000000
1.970000,-1.671762,-0.658659,-1.652202,1.584042,-1.022038,0.550171,1.991325,0.427325,2.509871,5.315482,8.948920,-3.654549,-11.306784,-20.594761,-58.553601,0.056413,-0.266301,0.000000,1.142251,-0.549732,0.000000
1.980000,-1.655821,-0.668857,-1.646575,1.604219,-1.017320,0.575078,2.043663,0.516048,2.470477,5.123629,8.826663,-4.215240,-27.188707,-3.666494,-53.510668,0.067631,-0.271567,0.000000,1.105156,-0.498305,-0.000000
1.990000,-1.639676,-0.679002,-1.640702,1.624907,-1.011719,0.599563,2.093512,0.604088,2.425662,4.856132,8.759809,-4.750507,-22.096409,-15.481586,-54.827611,0.078543,-0.276258,0.000000,1.074187,-0.438527,0.000000
2.000000,-1.623321,-0.689088,-1.634585,1.646081,-1.005243,0.623573,2.141051,0.690721,2.375397,4.646160,8.566439,-5.299964,-24.081308,-17.408815,-53.718358,0.089042,-0.280397,0.000000,1.025458,-0.385967,-0.000000
2.010000,-1.606753,-0.699104,-1.628232,1.667720,-0.997911,0.647053,2.186308,0.775464,2.319753,4.403312,8.378049,-5.826036,-25.604792,-19.691684,-52.402020,0.099057,-0.283997,0.000000,0.977125,-0.330879,-0.000000
2.020000,-1.589966,-0.709043,-1.621646,1.689799,-0.989740,0.669950,2.228976,0.858253,2.258847,4.123939,8.178072,-6.356021,-29.160657,-20.837286,-52.657037,0.108580,-0.287032,0.000000,0.927131,-0.272199,0.000000
2.030000,-1.572956,-0.718897,-1.614835,1.712290,-0.980753,0.692212,2.268791,0.938928,2.192728,3.843390,7.950104,-6.859528,-26.899903,-24.757582,-47.988080,0.117589,-0.289482,0.000000,0.874049,-0.215586,0.000000
2.040000,-1.555719,-0.728656,-1.607804,1.735166,-0.970970,0.713789,2.305856,1.017158,2.121761,3.564087,7.694335,-7.333621,-30.050556,-25.825826,-47.721499,0.126052,-0.291383,0.000000,0.818396,-0.161550,-0.000000
2.050000,-1.538251,-0.738313,-1.600562,1.758397,-0.960418,0.734632,2.339944,1.092794,2.046046,3.252103,7.429255,-7.805655,-31.226518,-27.722399,-45.746053,0.133958,-0.292728,0.000000,0.762533,-0.105268,0.000000
2.060000,-1.520550,-0.747862,-1.593114,1.781954,-0.949123,0.754694,2.370909,1.165695,1.965749,2.939661,7.148759,-8.250094,-32.257557,-29.355486,-43.628374,0.141301,-0.293518,0.000000,0.706222,-0.051588,0.000000
2.070000,-1.502611,-0.757293,-1.585471,1.805805,-0.937114,0.773932,2.398622,1.235635,1.881076,2.597963,6.833366,-8.682464,-35.079197,-32.732776,-42.330224,0.148071,-0.293763,0.000000,0.647316,0.003270,0.000000
2.080000,-1.484433,-0.766602,-1.577639,1.829915,-0.924421,0.792302,2.422885,1.302359,1.792199,2.259120,6.514884,-9.085914,-32.640199,-30.911573,-38.324903,0.154254,-0.293463,0.000000,0.589960,0.054944,-0.000000
2.090000,-1.466012,-0.775780,-1.569628,1.854251,-0.911077,0.809763,2.443830,1.365939,1.699464,1.925599,6.195965,-9.458592,-35.039996,-33.828460,-36.692122,0.159878,-0.292663,0.000000,0.534577,0.103158,-0.000000
2.100000,-1.447347,-0.784821,-1.561446,1.878780,-0.897114,0.826279,2.461297,1.426161,1.603072,1.567137,5.847080,-9.815192,-35.642752,-34.950217,-34.114582,0.164939,-0.291369,0.000000,0.477802,0.151793,0.000000
2.110000,-1.428436,-0.793720,-1.553105,1.903465,-0.882566,0.841813,2.475176,1.482871,1.503268,1.207822,5.493279,-10.141034,-36.197665,-35.974593,-31.437774,0.169441,-0.289595,0.000000,0.422759,0.197689,0.000000
2.120000,-1.409277,-0.802471,-1.544614,1.928271,-0.867468,0.856334,2.485437,1.535980,1.400310,0.843594,5.126333,-10.447357,-36.632826,-37.208413,-29.430168,0.173396,-0.287364,0.000000,0.368386,0.241727,0.000000
2.130000,-1.389870,-0.811068,-1.535982,1.953162,-0.851859,0.869810,2.492035,1.585379,1.294431,0.475468,4.753422,-10.721338,-36.973462,-37.343680,-25.344918,0.176814,-0.284695,0.000000,0.315747,0.283463,-0.000000
2.140000,-1.370214,-0.819506,-1.527221,1.978100,-0.835773,0.882214,2.494937,1.631035,1.185998,0.104584,4.376264,-10.961900,-37.180295,-38.247000,-23.150009,0.179717,-0.281613,0.000000,0.265033,0.322853,0.000000
2.150000,-1.350308,-0.827782,-1.518341,2.003048,-0.819251,0.893522,2.494122,1.672873,1.075259,-0.267779,3.990547,-11.180920,-37.276648,-38.687546,-20.261519,0.182118,-0.278139,0.000000,0.215521,0.360240,-0.000000
2.160000,-1.330153,-0.835890,-1.509354,2.027970,-0.802329,0.903712,2.489597,1.710856,0.962479,-0.636553,3.606124,-11.370335,-37.176232,-38.905568,-17.401917,0.184036,-0.274296,0.000000,0.168340,0.394977,0.000000
2.170000,-1.309749,-0.843827,-1.500271,2.052828,-0.785046,0.912766,2.481338,1.744931,0.847965,-1.017518,3.206191,-11.526936,-38.301341,-40.343271,-14.129031,0.185486,-0.270106,0.000000,0.121809,0.428727,-0.000000
2.180000,-1.289097,-0.851590,-1.491103,2.077584,-0.767443,0.920667,2.469289,1.775013,0.732026,-1.387584,2.814726,-11.657360,-35.671306,-37.902025,-11.964144,0.186482,-0.265583,0.000000,0.078121,0.459448,0.000000
2.190000,-1.268198,-0.859175,-1.481861,2.102202,-0.749559,0.927402,2.453635,1.801268,0.614902,-1.744655,2.434244,-11.762015,-36.427470,-38.888396,-8.758142,0.187059,-0.260766,0.000000,0.037374,0.487122,-0.000000
2.200000,-1.247053,-0.866580,-1.472559,2.126645,-0.731431,0.932962,2.434356,1.823652,0.496897,-2.109800,2.043571,-11.834421,-35.883156,-38.504624,-5.942278,0.187232,-0.255670,0.000000,-0.002457,0.513826,-0.000000
2.210000,-1.225665,-0.873803,-1.463206,2.150877,-0.713099,0.937338,2.411487,1.842193,0.378288,-2.462644,1.666192,-11.883133,-35.217574,-37.911706,-3.219986,0.187020,-0.250316,0.000000,-0.039366,0.537902,0.000000
2.220000,-1.204037,-0.880842,-1.453816,2.174863,-0.694600,0.940527,2.385083,1.856919,0.259372,-2.818869,1.276938,-11.893585,-35.478328,-38.979391,0.549699,0.186445,-0.244725,0.000000,-0.075625,0.560673,0.000000
2.230000,-1.182169,-0.887695,-1.444400,2.198567,-0.675973,0.942526,2.355162,1.867802,0.140478,-3.160703,0.906722,-11.884320,-32.856134,-35.011934,1.274429,0.185519,-0.238914,0.000000,-0.108705,0.581013,-0.000000
2.240000,-1.160066,-0.894361,-1.434969,2.221955,-0.657256,0.943337,2.321926,1.875133,0.021742,-3.486472,0.558199,-11.856793,-32.821243,-35.616276,4.794428,0.184282,-0.232910,0.000000,-0.138548,0.598936,-0.000000
2.250000,-1.137731,-0.900839,-1.425537,2.244994,-0.638482,0.942962,2.285423,1.878927,-0.096529,-3.812277,0.202842,-11.793590,-31.789593,-34.492462,7.258280,0.182749,-0.226732,0.000000,-0.167642,0.615717,-0.000000
2.260000,-1.115168,-0.907130,-1.416114,2.267653,-0.619689,0.941409,2.245732,1.879258,-0.214080,-4.124025,-0.134347,-11.713117,-30.696919,-33.271831,9.586336,0.180939,-0.220395,0.000000,-0.194076,0.630557,0.000000
2.270000,-1.092380,-0.913233,-1.406713,2.289899,-0.600908,0.938684,2.202968,1.876254,-0.330653,-4.427347,-0.465404,-11.595135,-29.810867,-32.586367,13.251318,0.178873,-0.213917,0.000000,-0.218744,0.643687,0.000000
2.280000,-1.069371,-0.919149,-1.397344,2.311702,-0.582174,0.934800,2.157231,1.870012,-0.445944,-4.716978,-0.778688,-11.464015,-28.100331,-30.043384,12.932416,0.176572,-0.207317,0.000000,-0.241091,0.655246,-0.000000
2.290000,-1.046147,-0.924877,-1.388020,2.333034,-0.563518,0.929769,2.108678,1.860747,-0.559902,-4.992084,-1.072738,-11.321814,-27.057558,-29.089793,16.239561,0.174059,-0.200611,0.000000,-0.261126,0.665276,-0.000000
2.300000,-1.022712,-0.930419,-1.378753,2.353867,-0.544969,0.923607,2.057422,1.848583,-0.672255,-5.256705,-1.357316,-11.145958,-25.712408,-27.474589,18.165770,0.171355,-0.193813,0.000000,-0.279475,0.673830,0.000000
2.310000,-0.999071,-0.935777,-1.369552,2.374174,-0.526556,0.916330,2.003593,1.833667,-0.782795,-5.506887,-1.622864,-10.959391,-24.327567,-25.783801,19.936526,0.168477,-0.186938,0.000000,-0.295730,0.681066,-0.000000
2.320000,-0.975230,-0.940951,-1.360430,2.393930,-0.508304,0.907958,1.947330,1.816170,-0.891321,-5.743219,-1.874241,-10.740178,-22.921716,-24.323858,23.102476,0.165446,-0.180001,0.000000,-0.310090,0.686752,0.000000
2.330000,-0.951195,-0.945944,-1.351396,2.413113,-0.490240,0.898512,1.888777,1.796250,-0.997582,-5.964979,-2.105849,-10.514195,-21.424527,-21.983252,22.050090,0.162282,-0.173017,0.000000,-0.322527,0.691344,-0.000000
2.340000,-0.926970,-0.950757,-1.342463,2.431699,-0.472387,0.888014,1.828081,1.774123,-1.101596,-6.171829,-2.316894,-10.283708,-19.951918,-20.375541,24.819053,0.159002,-0.165994,0.000000,-0.333072,0.694885,-0.000000
2.350000,-0.902563,-0.955392,-1.333640,2.449668,-0.454765,0.876488,1.765390,1.749963,-1.203148,-6.363849,-2.511869,-10.024932,-18.438056,-18.455340,26.127291,0.155626,-0.158946,0.000000,-0.341859,0.697097,-0.000000
2.360000,-0.877979,-0.959853,-1.324936,2.467000,-0.437394,0.863960,1.700851,1.723951,-1.302086,-6.541492,-2.687384,-9.761029,-16.925979,-16.522602,27.294312,0.152170,-0.151884,0.000000,-0.348976,0.698417,0.000000
2.370000,-0.853225,-0.964141,-1.316364,2.483679,-0.420291,0.850455,1.634624,1.696290,-1.398278,-6.700838,-2.841126,-9.473355,-15.099315,-14.338190,29.580125,0.148654,-0.144820,0.000000,-0.354046,0.698308,-0.000000
2.380000,-0.828308,-0.968259,-1.307931,2.499688,-0.403473,0.836004,1.566878,1.667188,-1.491549,-6.846765,-2.976526,-9.183270,-14.090346,-12.742821,28.398073,0.145094,-0.137765,0.000000,-0.357693,0.697525,-0.000000
2.390000,-0.803234,-0.972211,-1.299647,2.515012,-0.386952,0.820634,1.497731,1.636819,-1.581947,-6.979459,-3.093592,-8.892797,-12.290032,-10.551809,30.325377,0.141504,-0.130723,0.000000,-0.359972,0.696115,0.000000
2.400000,-0.778010,-0.975999,-1.291521,2.529638,-0.370740,0.804375,1.427352,1.605392,-1.669328,-7.093931,-3.188548,-8.582622,-10.764089,-8.556692,31.046456,0.137901,-0.123706,0.000000,-0.360381,0.693468,-0.000000
2.410000,-0.752643,-0.979627,-1.283562,2.543555,-0.354847,0.787258,1.355893,1.573108,-1.753601,-7.195564,-3.265129,-8.271160,-9.270558,-6.578659,31.655077,0.134301,-0.116722,0.000000,-0.359487,0.690281,0.000000
2.420000,-0.727141,-0.983097,-1.275778,2.556753,-0.339280,0.769313,1.283514,1.540170,-1.834699,-7.276687,-3.318478,-7.945956,-7.241772,-4.271018,32.957150,0.130718,-0.109780,0.000000,-0.356781,0.685800,0.000000
2.430000,-0.701511,-0.986414,-1.268178,2.569223,-0.324045,0.750575,1.210395,1.506795,-1.912524,-7.346446,-3.354338,-7.620992,-6.722296,-2.910328,32.006983,0.127169,-0.102889,0.000000,-0.352922,0.680959,0.000000
2.440000,-0.675759,-0.989579,-1.260769,2.580959,-0.309145,0.731074,1.136619,1.473139,-1.987127,-7.405439,-3.373184,-7.297786,-4.792515,-0.684817,33.035448,0.123663,-0.096051,0.000000,-0.347974,0.675811,0.000000
2.450000,-0.649894,-0.992598,-1.253559,2.591954,-0.294582,0.710843,1.062356,1.439409,-2.058438,-7.444826,-3.369667,-6.964107,-3.376276,1.203571,33.271636,0.120215,-0.089273,0.000000,-0.341395,0.669532,0.000000
2.460000,-0.623922,-0.995472,-1.246555,2.602205,-0.280356,0.689916,0.987757,1.405797,-2.126417,-7.472912,-3.349832,-6.631617,-1.998264,3.032678,33.428889,0.116838,-0.082563,0.000000,-0.333812,0.662914,-0.000000
2.470000,-0.597852,-0.998206,-1.239763,2.611708,-0.266465,0.668326,0.912964,1.372495,-2.191049,-7.482617,-3.306626,-6.293797,-0.188800,5.332234,33.913580,0.113545,-0.075927,0.000000,-0.324596,0.655329,0.000000
2.480000,-0.571691,-1.000803,-1.233190,2.620464,-0.252905,0.646106,0.838138,1.339711,-2.252301,-7.481851,-3.248990,-5.957972,0.328511,6.177363,33.233837,0.110349,-0.069373,0.000000,-0.314553,0.647480,0.000000
2.490000,-0.545445,-1.003265,-1.226843,2.628471,-0.239669,0.623291,0.763357,1.307559,-2.310220,-7.471306,-3.177847,-5.625101,2.016811,8.311865,33.541409,0.107256,-0.062899,0.000000,-0.303763,0.639417,0.000000
2.500000,-0.519124,-1.005597,-1.220727,2.635732,-0.226751,0.599913,0.688772,1.276230,-2.364789,-7.443709,-3.085262,-5.289130,3.254037,9.924157,33.433024,0.104279,-0.056513,0.000000,-0.291530,0.630508,0.000000
2.510000,-0.492733,-1.007801,-1.214847,2.642248,-0.214141,0.576006,0.614513,1.245891,-2.416011,-7.406287,-2.980146,-4.955496,4.441091,11.445626,33.286186,0.101427,-0.050221,0.000000,-0.278619,0.621366,0.000000
2.520000,-0.466281,-1.009881,-1.209208,2.648023,-0.201829,0.551604,0.540703,1.216706,-2.463905,-7.353029,-2.853296,-4.623552,5.991882,13.564280,33.094888,0.098712,-0.044025,0.000000,-0.264276,0.611489,0.000000
2.530000,-0.439775,-1.011839,-1.203816,2.653064,-0.189802,0.526739,0.467480,1.188856,-2.508489,-7.291032,-2.716415,-4.293745,6.393392,13.788065,32.860511,0.096143,-0.037931,0.000000,-0.249441,0.601444,-0.000000
2.540000,-0.413222,-1.013678,-1.198675,2.657375,-0.178047,0.501445,0.394908,1.162404,-2.549788,-7.221043,-2.570771,-3.966441,7.809840,15.677908,32.595709,0.093724,-0.031940,0.000000,-0.234201,0.591278,-0.000000
2.550000,-0.386630,-1.015401,-1.193788,2.660965,-0.166549,0.475754,0.323111,1.137510,-2.587828,-7.136803,-2.406117,-3.641932,8.817566,16.888733,32.301795,0.091464,-0.026056,0.000000,-0.217728,0.580473,-0.000000
2.560000,-0.360006,-1.017010,-1.189161,2.663840,-0.155291,0.449699,0.252194,1.114306,-2.622631,-7.045007,-2.233000,-3.319175,9.764928,18.003180,32.012025,0.089370,-0.020282,0.000000,-0.200842,0.569553,0.000000
2.570000,-0.333356,-1.018507,-1.184796,2.666012,-0.144257,0.423312,0.182260,1.092909,-2.654240,-6.939538,-2.043745,-3.003903,11.096184,19.557673,31.267266,0.087451,-0.014622,0.000000,-0.182956,0.558020,0.000000
2.580000,-0.306688,-1.019895,-1.180696,2.667489,-0.133427,0.396625,0.113422,1.073451,-2.682709,-6.827961,-1.847929,-2.689096,11.204152,19.581275,31.699808,0.085712,-0.009079,0.000000,-0.164765,0.546451,0.000000
2.590000,-0.280008,-1.021176,-1.176864,2.668284,-0.122781,0.369669,0.045717,1.055966,-2.708021,-6.711077,-1.646871,-2.374531,12.390949,20.892081,30.982813,0.084156,-0.003652,0.000000,-0.146354,0.534899,-0.000000
2.600000,-0.253324,-1.022352,-1.173303,2.668408,-0.112300,0.342475,-0.020756,1.040562,-2.730229,-6.582231,-1.432770,-2.067499,13.144318,21.635224,30.652382,0.082788,0.001655,0.000000,-0.127131,0.522818,-0.000000
2.610000,-0.226642,-1.023423,-1.170015,2.667873,-0.101963,0.315074,-0.085911,1.027323,-2.749368,-6.447755,-1.214179,-1.760579,13.851070,22.274393,30.351232,0.081614,0.006840,0.000000,-0.107705,0.510694,0.000000
2.620000,-0.199969,-1.024391,-1.167002,2.666694,-0.091747,0.287498,-0.149679,1.016315,-2.765482,-6.304373,-0.985701,-1.463963,14.711997,23.202589,29.342801,0.080636,0.011902,0.000000,-0.087693,0.498242,-0.000000
2.630000,-0.173310,-1.025258,-1.164266,2.664885,-0.081629,0.259775,-0.211982,1.007615,-2.778640,-6.155887,-0.754705,-1.165936,14.974012,22.973246,30.275635,0.079860,0.016838,0.000000,-0.067579,0.485752,-0.000000
2.640000,-0.146673,-1.026024,-1.161807,2.662459,-0.071587,0.231935,-0.272783,1.001223,-2.788791,-6.002923,-0.522493,-0.865891,15.717088,23.655873,29.362180,0.079285,0.021648,0.000000,-0.047440,0.473266,0.000000
2.650000,-0.120063,-1.026690,-1.159627,2.659434,-0.061596,0.204009,-0.332014,0.997191,-2.795996,-5.842605,-0.283665,-0.575479,16.232655,23.889218,29.094850,0.078913,0.026332,0.000000,-0.026898,0.460518,0.000000
2.660000,-0.093486,-1.027256,-1.157727,2.655825,-0.051635,0.176025,-0.389622,0.995543,-2.800290,-5.678138,-0.045979,-0.283431,16.702581,23.991362,28.868116,0.078746,0.030887,0.000000,-0.006473,0.447763,0.000000
2.670000,-0.066949,-1.027723,-1.156107,2.651647,-0.041678,0.148012,-0.445558,0.996303,-2.801709,-5.508257,0.199135,-0.002211,17.218339,24.664100,27.815845,0.078786,0.035314,0.000000,0.014459,0.434854,-0.000000
2.680000,-0.040455,-1.028090,-1.154767,2.646919,-0.031701,0.120000,-0.499776,0.999508,-2.800321,-5.334923,0.439606,0.282120,17.439381,23.401911,29.066842,0.079034,0.039612,0.000000,0.035057,0.421961,0.000000
2.690000,-0.014012,-1.028357,-1.153707,2.641658,-0.021680,0.092016,-0.552247,1.005071,-2.796050,-5.158654,0.673914,0.570341,17.855124,23.796013,28.138981,0.079485,0.043780,0.000000,0.055230,0.409119,-0.000000
2.700000,0.012376,-1.028523,-1.152926,2.635880,-0.011591,0.064088,-0.602935,1.013005,-2.788954,-4.978377,0.912186,0.848703,18.145285,23.489015,27.976574,0.080140,0.047819,0.000000,0.075713,0.396180,0.000000
2.710000,0.038704,-1.028588,-1.152425,2.629605,-0.001412,0.036246,-0.651807,1.023292,-2.779062,-4.795537,1.144404,1.129801,18.397265,23.087122,27.847383,0.080998,0.051729,0.000000,0.095820,0.383284,-0.000000
2.720000,0.064967,-1.028551,-1.152201,2.622850,0.008882,0.008516,-0.698839,1.035891,-2.766395,-4.610741,1.374971,1.402039,18.572539,22.864974,26.989175,0.082056,0.055510,0.000000,0.115847,0.370415,0.000000
2.730000,0.091159,-1.028410,-1.152254,2.615634,0.019314,-0.019073,-0.744014,1.050766,-2.751007,-4.423855,1.598336,1.677748,18.798380,21.787252,28.167129,0.083313,0.059163,0.000000,0.135457,0.357597,0.000000
2.740000,0.117278,-1.028164,-1.152582,2.607976,0.029905,-0.046495,-0.787311,1.067828,-2.732823,-4.235269,1.813325,1.957603,18.893951,21.340873,27.415585,0.084764,0.062688,0.000000,0.154586,0.344855,-0.000000
2.750000,0.143317,-1.027811,-1.153183,2.599894,0.040677,-0.073720,-0.828718,1.087020,-2.711888,-4.045960,2.023596,2.229410,18.979008,20.551808,27.336321,0.086404,0.066085,0.000000,0.173461,0.332190,-0.000000
2.760000,0.169274,-1.027350,-1.154056,2.591408,0.051652,-0.100723,-0.868227,1.108266,-2.688222,-3.855733,2.224094,2.503968,19.026454,19.664394,27.274049,0.088231,0.069357,0.000000,0.191775,0.319624,0.000000
2.770000,0.195144,-1.026777,-1.155197,2.582536,0.062849,-0.127476,-0.905834,1.131481,-2.661835,-3.665870,2.417794,2.772127,18.971976,18.932676,26.651815,0.090239,0.072503,0.000000,0.209719,0.307193,-0.000000
2.780000,0.220924,-1.026092,-1.156604,2.573298,0.074288,-0.153951,-0.941543,1.156582,-2.632767,-3.475747,2.599764,3.043171,19.047167,17.442629,27.566207,0.092423,0.075526,0.000000,0.226984,0.294886,-0.000000
2.790000,0.246609,-1.025291,-1.158275,2.563712,0.085987,-0.180122,-0.975349,1.183433,-2.600959,-3.285709,2.768947,3.317512,18.921317,16.509093,27.005470,0.094776,0.078427,0.000000,0.243507,0.282721,-0.000000
2.800000,0.272197,-1.024371,-1.160205,2.553797,0.097962,-0.205961,-1.007263,1.211931,-2.566442,-3.097172,2.928569,3.585781,18.812316,15.272301,26.942275,0.097292,0.081206,0.000000,0.259489,0.270739,0.000000
2.810000,0.297684,-1.023331,-1.162393,2.543573,0.110230,-0.231442,-1.037297,1.241949,-2.529234,-2.909919,3.072486,3.855853,18.660243,13.915860,26.873573,0.099962,0.083868,0.000000,0.274512,0.258957,0.000000
2.820000,0.323067,-1.022166,-1.164833,2.533057,0.122806,-0.256537,-1.065464,1.273368,-2.489344,-2.723834,3.210472,4.121399,18.523270,13.263117,26.424174,0.102782,0.086412,0.000000,0.289317,0.247312,-0.000000
2.830000,0.348344,-1.020873,-1.167522,2.522270,0.135702,-0.281220,-1.091782,1.306090,-2.446800,-2.540148,3.328989,4.388291,18.206988,10.415744,26.957025,0.105744,0.088841,0.000000,0.302878,0.235928,0.000000
2.840000,0.373512,-1.019451,-1.170456,2.511228,0.148931,-0.305464,-1.116277,1.339876,-2.401572,-2.359264,3.426760,4.656604,17.991338,9.536717,26.508781,0.108834,0.091158,0.000000,0.315096,0.224829,-0.000000
2.850000,0.398568,-1.017894,-1.173630,2.499950,0.162503,-0.329242,-1.138974,1.374604,-2.353688,-2.180675,3.516031,4.920021,17.693358,7.899024,26.361941,0.112045,0.093365,0.000000,0.326905,0.213915,-0.000000
2.860000,0.423510,-1.016199,-1.177039,2.488454,0.176426,-0.352529,-1.159902,1.410125,-2.303172,-2.005495,3.585246,5.182789,17.359624,6.198661,26.173778,0.115368,0.095464,0.000000,0.337411,0.203296,0.000000
2.870000,0.448336,-1.014364,-1.180679,2.476758,0.190707,-0.375297,-1.179094,1.446273,-2.250040,-1.833386,3.642254,5.443265,17.034385,4.938202,25.927418,0.118792,0.097459,0.000000,0.347233,0.192923,0.000000
2.880000,0.473045,-1.012384,-1.184543,2.464878,0.205353,-0.397521,-1.196584,1.482899,-2.194314,-1.665386,3.678467,5.701461,16.559267,2.288909,25.705127,0.122308,0.099351,0.000000,0.355668,0.182868,-0.000000
2.890000,0.497633,-1.010256,-1.188627,2.452832,0.220366,-0.419175,-1.212417,1.519768,-2.136020,-1.501861,3.693075,5.956977,16.162860,0.884802,25.378101,0.125900,0.101145,0.000000,0.362631,0.173151,-0.000000
2.900000,0.522101,-1.007975,-1.192925,2.440635,0.235749,-0.440233,-1.226634,1.556719,-2.075187,-1.342427,3.693844,6.208966,15.696165,-0.994581,25.023448,0.129558,0.102843,0.000000,0.368736,0.163724,-0.000000
2.910000,0.546446,-1.005539,-1.197430,2.428304,0.251500,-0.460670,-1.239283,1.593571,-2.011857,-1.188202,3.673148,6.456119,15.193974,-2.913433,24.594196,0.133269,0.104448,0.000000,0.373327,0.154660,0.000000
2.920000,0.570667,-1.002944,-1.202136,2.415854,0.267619,-0.480462,-1.250411,1.630137,-1.946064,-1.038186,3.637674,6.702479,14.755345,-4.414064,24.476881,0.137022,0.105965,0.000000,0.376979,0.145905,-0.000000
2.930000,0.594762,-1.000186,-1.207037,2.403301,0.284102,-0.499583,-1.260067,1.666249,-1.877834,-0.894220,3.579997,6.941440,14.031596,-7.130720,23.299181,0.140803,0.107395,0.000000,0.378980,0.137548,-0.000000
2.940000,0.618732,-0.997261,-1.212125,2.390658,0.300942,-0.518011,-1.268317,1.701660,-1.807264,-0.756662,3.499668,7.172121,13.524662,-8.704544,23.019197,0.144595,0.108745,0.000000,0.379241,0.129606,-0.000000
2.950000,0.642575,-0.994166,-1.217395,2.377939,0.318132,-0.535721,-1.275217,1.736195,-1.734398,-0.624238,3.403933,7.399964,12.906492,-10.673021,22.345249,0.148385,0.110016,0.000000,0.378400,0.122018,0.000000
2.960000,0.666291,-0.990897,-1.222837,2.365158,0.335662,-0.552691,-1.280832,1.769666,-1.659301,-0.500092,3.287077,7.617927,12.230590,-12.629154,21.576184,0.152157,0.111214,0.000000,0.375848,0.114983,-0.000000
2.970000,0.689878,-0.987452,-1.228446,2.352326,0.353521,-0.568900,-1.285216,1.801877,-1.582038,-0.376834,3.152014,7.834382,12.114256,-14.446246,21.372182,0.155897,0.112342,0.000000,0.371905,0.107948,0.000000
2.980000,0.713337,-0.983826,-1.234213,2.339457,0.371695,-0.584325,-1.288406,1.832639,-1.502658,-0.264240,2.996840,8.038186,10.391660,-16.586675,19.366030,0.159590,0.113402,0.000000,0.366203,0.101639,-0.000000
2.990000,0.736667,-0.980017,-1.240130,2.326562,0.390168,-0.598946,-1.290541,1.861746,-1.421323,-0.162937,2.821700,8.228137,10.171923,-18.369971,18.945075,0.163215,0.114404,0.000000,0.358668,0.096107,0.000000
3.000000,0.759869,-0.976021,-1.246189,2.313650,0.408924,-0.612745,-1.291666,1.889016,-1.338103,-0.063453,2.628997,8.413996,9.417322,-20.230449,17.881534,0.166758,0.115350,0.000000,0.349600,0.090631,-0.000000
3.010000,0.782940,-0.971837,-1.252382,2.300732,0.427942,-0.625703,-1.291848,1.914259,-1.253101,0.025609,2.416482,8.584177,8.641391,-22.066187,16.699915,0.170200,0.116244,0.000000,0.338559,0.085845,-0.000000
3.020000,0.805883,-0.967462,-1.258700,2.287816,0.447201,-0.637802,-1.291160,1.937301,-1.166415,0.111625,2.189670,8.752874,8.319648,-23.479709,16.485037,0.173525,0.117092,0.000000,0.326179,0.081252,0.000000
3.030000,0.828697,-0.962893,-1.265135,2.274911,0.466680,-0.649025,-1.289653,1.957985,-1.078112,0.186928,1.943039,8.902250,6.732945,-25.842050,13.360729,0.176717,0.117897,0.000000,0.311625,0.077349,0.000000
3.040000,0.851381,-0.958128,-1.271678,2.262025,0.486353,-0.659359,-1.287460,1.976095,-0.988443,0.251147,1.676954,9.030798,6.353723,-27.168411,12.883232,0.179750,0.118666,0.000000,0.294803,0.074166,0.000000
3.050000,0.873937,-0.953165,-1.278319,2.249164,0.506193,-0.668790,-1.284637,1.991485,-0.897501,0.311944,1.398274,9.155025,5.564434,-28.748198,11.405139,0.182608,0.119405,0.000000,0.276516,0.071201,-0.000000
3.060000,0.896365,-0.948003,-1.285050,2.236334,0.526173,-0.677305,-1.281235,2.004010,-0.805417,0.367699,1.104283,9.258925,4.875063,-30.211372,9.838245,0.185273,0.120115,0.000000,0.256176,0.068429,-0.000000
3.070000,0.918664,-0.942641,-1.291862,2.223541,0.546263,-0.684895,-1.277364,2.013509,-0.712337,0.402912,0.792736,9.355932,2.860202,-31.911077,9.091238,0.187724,0.120804,0.000000,0.233678,0.067430,0.000000
3.080000,0.940836,-0.937078,-1.298745,2.210788,0.566432,-0.691549,-1.273167,2.019828,-0.618375,0.439446,0.469984,9.430863,4.469485,-32.616583,5.870154,0.189941,0.121486,0.000000,0.209289,0.066057,0.000000
3.090000,0.962880,-0.931312,-1.305690,2.198079,0.586649,-0.697261,-1.268562,2.022877,-0.523801,0.478340,0.137307,9.482453,2.612478,-34.072538,4.903209,0.191904,0.122147,0.000000,0.183008,0.064171,0.000000
3.100000,0.984798,-0.925345,-1.312687,2.185418,0.606878,-0.702024,-1.263678,2.022524,-0.428749,0.497651,-0.209618,9.524790,1.946713,-35.120602,3.091348,0.193593,0.122800,0.000000,0.154541,0.063999,-0.000000
3.110000,1.006589,-0.919175,-1.319727,2.172806,0.627087,-0.705835,-1.258618,2.018680,-0.333389,0.513207,-0.560058,9.543631,1.236106,-35.946829,1.198517,0.194990,0.123452,0.000000,0.124572,0.063913,0.000000
3.120000,1.028254,-0.912803,-1.326801,2.160246,0.647240,-0.708691,-1.253432,2.011216,-0.237897,0.523045,-0.937337,9.553483,0.664560,-38.517201,0.250565,0.196072,0.124105,0.000000,0.091064,0.064277,0.000000
3.130000,1.049794,-0.906230,-1.333898,2.147738,0.667299,-0.710592,-1.248183,1.999957,-0.142409,0.525093,-1.309597,9.537715,-0.255659,-35.882751,-3.426306,0.196809,0.124764,0.000000,0.056608,0.065103,0.000000
3.140000,1.071209,-0.899458,-1.341009,2.135282,0.687227,-0.711540,-1.242956,1.985057,-0.047236,0.519341,-1.674187,9.495248,-0.824450,-37.992997,-4.552904,0.197202,0.125434,0.000000,0.021393,0.066390,0.000000
3.150000,1.092499,-0.892486,-1.348126,2.122878,0.706988,-0.711539,-1.237814,1.966383,0.047470,0.508050,-2.060693,9.442161,-1.500674,-38.309228,-6.585744,0.197224,0.126119,0.000000,-0.017214,0.068127,-0.000000
3.160000,1.113666,-0.885319,-1.355237,2.110525,0.726542,-0.710593,-1.232841,1.943861,0.141517,0.484785,-2.444063,9.363687,-2.260790,-38.531941,-8.654528,0.196854,0.126827,0.000000,-0.057169,0.070783,-0.000000
3.170000,1.134710,-0.877956,-1.362334,2.098221,0.745852,-0.708711,-1.228071,1.917481,0.234712,0.471051,-2.832618,9.273248,-1.345241,-38.972831,-9.878261,0.196074,0.127558,0.000000,-0.099035,0.072386,0.000000
3.180000,1.155631,-0.870402,-1.369408,2.085963,0.764879,-0.705902,-1.223484,1.887216,0.326892,0.439848,-3.219208,9.156796,-4.918596,-38.316389,-13.425379,0.194868,0.128308,0.000000,-0.142504,0.075459,0.000000
3.190000,1.176430,-0.862660,-1.376449,2.073750,0.783583,-0.702178,-1.219342,1.853111,0.417755,0.390195,-3.602198,9.013746,-4.137349,-38.443766,-14.734496,0.193219,0.129102,0.000000,-0.187460,0.080152,0.000000
3.200000,1.197106,-0.854732,-1.383449,2.061575,0.801928,-0.697552,-1.215635,1.815166,0.507134,0.349811,-3.986043,8.858359,-4.801421,-38.117198,-16.786366,0.191113,0.129937,0.000000,-0.234031,0.083815,-0.000000
3.210000,1.217661,-0.846623,-1.390397,2.049435,0.819874,-0.692041,-1.212375,1.773419,0.594846,0.301520,-4.362406,8.680673,-5.322543,-37.609231,-18.779820,0.188536,0.130812,0.000000,-0.281614,0.088072,-0.000000
3.220000,1.238095,-0.838336,-1.397287,2.037326,0.837384,-0.685661,-1.209659,1.727899,0.680679,0.239147,-4.742153,8.482567,-6.687208,-37.853782,-20.801562,0.185473,0.131735,0.000000,-0.331309,0.093614,0.000000
3.230000,1.258408,-0.829876,-1.404108,2.025240,0.854419,-0.678434,-1.207586,1.678621,0.764434,0.177534,-5.109295,8.265482,-5.613882,-35.537182,-22.606305,0.181909,0.132716,0.000000,-0.381360,0.098909,0.000000
3.240000,1.278600,-0.821249,-1.410853,2.013172,0.870944,-0.670380,-1.206099,1.625765,0.845927,0.117753,-5.461806,8.029951,-6.796977,-35.409657,-24.523705,0.177846,0.133745,0.000000,-0.431456,0.103818,-0.000000
3.250000,1.298671,-0.812459,-1.417513,2.001116,0.886923,-0.661524,-1.205280,1.569381,0.924969,0.045679,-5.813061,7.775494,-7.148591,-34.352986,-26.322883,0.173274,0.134830,0.000000,-0.482995,0.109850,0.000000
3.260000,1.318622,-0.803513,-1.424080,1.989064,0.902321,-0.651890,-1.205173,1.509576,1.001385,-0.024471,-6.145338,7.504958,-7.419725,-33.081606,-28.025297,0.168189,0.135973,0.000000,-0.533877,0.115501,0.000000
3.270000,1.338453,-0.794415,-1.430548,1.977010,0.917103,-0.641505,-1.205822,1.446437,1.074992,-0.107576,-6.483475,7.212918,-8.662655,-33.553435,-30.123038,0.162587,0.137178,0.000000,-0.586832,0.122309,0.000000
3.280000,1.358162,-0.785173,-1.436908,1.964945,0.931238,-0.630400,-1.207306,1.380000,1.145602,-0.186424,-6.795601,6.907949,-7.081922,-28.821450,-30.848022,0.156459,0.138450,0.000000,-0.638021,0.128495,-0.000000
3.290000,1.377751,-0.775793,-1.443154,1.952861,0.944694,-0.618604,-1.209528,1.310628,1.213114,-0.259775,-7.079168,6.591296,-8.115290,-28.853827,-32.714769,0.149836,0.139776,0.000000,-0.686900,0.133891,-0.000000
3.300000,1.397219,-0.766281,-1.449278,1.940752,0.957441,-0.606148,-1.212548,1.238395,1.277362,-0.344015,-7.363983,6.256099,-8.191151,-27.114078,-34.059381,0.142716,0.141162,0.000000,-0.736778,0.140209,-0.000000
3.310000,1.416566,-0.756646,-1.455275,1.928608,0.969453,-0.593068,-1.216395,1.163439,1.338211,-0.425494,-7.624125,5.912077,-8.236599,-25.291422,-35.253185,0.135109,0.142607,0.000000,-0.784326,0.146042,-0.000000
3.320000,1.435791,-0.746895,-1.461137,1.916421,0.980702,-0.579396,-1.221069,1.085943,1.395523,-0.509876,-7.873120,5.546567,-8.495816,-24.110929,-37.318235,0.127031,0.144109,0.000000,-0.831056,0.151795,0.000000
3.330000,1.454895,-0.737035,-1.466861,1.904183,0.991163,-0.565170,-1.226585,1.006059,1.449133,-0.592397,-8.098044,5.176841,-7.996348,-20.848535,-36.590805,0.118497,0.145666,0.000000,-0.874954,0.157173,-0.000000
3.340000,1.473875,-0.727074,-1.472439,1.891887,1.000816,-0.550426,-1.232908,0.924070,1.499056,-0.672398,-8.297559,4.804823,-8.133380,-19.427717,-38.307919,0.109543,0.147273,0.000000,-0.915582,0.162103,-0.000000
3.350000,1.492732,-0.717021,-1.477868,1.879522,1.009638,-0.535201,-1.240040,0.840148,1.545162,-0.753752,-8.483100,4.415492,-7.992487,-17.285777,-39.021999,0.100191,0.148927,0.000000,-0.954224,0.166745,-0.000000
3.360000,1.511465,-0.706884,-1.483142,1.867083,1.017613,-0.519535,-1.247978,0.754496,1.587370,-0.833584,-8.643480,4.025548,-7.830378,-15.077064,-39.567880,0.090472,0.150624,0.000000,-0.989091,0.171022,0.000000
3.370000,1.530073,-0.696672,-1.488257,1.854560,1.024723,-0.503467,-1.256695,0.667329,1.625607,-0.908961,-8.787201,3.618847,-7.369685,-13.372764,-41.144922,0.080418,0.152358,0.000000,-1.021112,0.174267,-0.000000
3.380000,1.548556,-0.686393,-1.493210,1.841947,1.030955,-0.487037,-1.266156,0.578841,1.659764,-0.983601,-8.904780,3.215802,-7.555094,-10.128449,-39.422339,0.070065,0.154120,0.000000,-1.048711,0.177256,0.000000
3.390000,1.566912,-0.676056,-1.497997,1.829235,1.036297,-0.470285,-1.276364,0.489325,1.689947,-1.057247,-8.995482,2.818624,-7.033620,-8.297774,-40.600997,0.059460,0.155911,0.000000,-1.071599,0.179991,-0.000000
3.400000,1.585140,-0.665670,-1.502615,1.816417,1.040739,-0.453251,-1.287280,0.398986,1.716086,-1.125258,-9.068214,2.409429,-6.694115,-5.957637,-40.605992,0.048644,0.157722,0.000000,-1.090798,0.181557,-0.000000
3.410000,1.603240,-0.655244,-1.507061,1.803487,1.044274,-0.435977,-1.298844,0.308052,1.738174,-1.186579,-9.114498,2.008937,-6.229664,-3.595469,-40.405898,0.037661,0.159543,0.000000,-1.104993,0.182200,0.000000
3.420000,1.621210,-0.644787,-1.511333,1.790438,1.046899,-0.418501,-1.311049,0.216751,1.756198,-1.255860,-9.142863,1.593179,-6.972437,-1.791502,-41.816578,0.026557,0.161371,0.000000,-1.115225,0.183214,0.000000
3.430000,1.639048,-0.634309,-1.515430,1.777264,1.048609,-0.400867,-1.323914,0.125287,1.770093,-1.312306,-9.144340,1.192085,-4.290637,1.501491,-38.351946,0.015375,0.163203,0.000000,-1.120173,0.182664,-0.000000
3.440000,1.656755,-0.623818,-1.519350,1.763958,1.049405,-0.383112,-1.337243,0.033957,1.780104,-1.354662,-9.118742,0.808238,-4.829258,3.322138,-39.311147,0.004171,0.165019,0.000000,-1.119858,0.180458,0.000000
3.450000,1.674327,-0.613324,-1.523092,1.750517,1.049289,-0.365278,-1.351039,-0.057034,1.786207,-1.403236,-9.075561,0.414056,-4.229488,5.596126,-38.592085,-0.007009,0.166814,0.000000,-1.115476,0.178508,0.000000
3.460000,1.691764,-0.602835,-1.526656,1.736936,1.048266,-0.347401,-1.365258,-0.147488,1.788444,-1.439191,-9.011825,0.034937,-3.578049,7.735433,-37.749677,-0.018124,0.168583,0.000000,-1.106699,0.175056,-0.000000
3.470000,1.709065,-0.592362,-1.530040,1.723211,1.046342,-0.329521,-1.379851,-0.237152,1.786892,-1.480439,-8.915591,-0.345497,-4.067353,10.924494,-37.796502,-0.029123,0.170318,0.000000,-1.092117,0.171955,0.000000
3.480000,1.726228,-0.581912,-1.533246,1.709338,1.043527,-0.311676,-1.394817,-0.325758,1.781592,-1.507866,-8.805659,-0.709669,-1.397700,11.031756,-35.003626,-0.039956,0.172018,0.000000,-1.074212,0.167272,0.000000
3.490000,1.743252,-0.571494,-1.536274,1.695314,1.039831,-0.293901,-1.409955,-0.413229,1.772763,-1.520548,-8.683563,-1.055780,-1.745852,13.955054,-34.728547,-0.050598,0.173661,0.000000,-1.053380,0.160977,-0.000000
3.500000,1.760134,-0.561118,-1.539125,1.681138,1.035267,-0.276232,-1.425253,-0.499320,1.760475,-1.537630,-8.531783,-1.399440,-1.066165,15.806306,-33.462733,-0.061005,0.175244,0.000000,-1.027545,0.155079,0.000000
3.510000,1.776874,-0.550792,-1.541799,1.666808,1.029849,-0.258703,-1.440701,-0.583841,1.744836,-1.551812,-8.370156,-1.725960,-0.567003,17.491658,-32.108799,-0.071142,0.176768,0.000000,-0.999416,0.149036,-0.000000
3.520000,1.793470,-0.540524,-1.544299,1.652324,1.023596,-0.241346,-1.456175,-0.666588,1.725980,-1.537920,-8.173182,-2.043933,2.174217,20.927219,-31.198944,-0.080974,0.178219,0.000000,-0.966087,0.139692,0.000000
3.530000,1.809920,-0.530322,-1.546627,1.637686,1.016525,-0.224194,-1.471498,-0.747298,1.704019,-1.532921,-7.972094,-2.343946,-1.213214,19.242992,-28.783173,-0.090461,0.179577,0.000000,-0.931595,0.131718,-0.000000
3.540000,1.826223,-0.520196,-1.548784,1.622894,1.008656,-0.207275,-1.486878,-0.826032,1.679166,-1.538574,-7.769269,-2.624904,1.260947,22.272627,-27.674004,-0.099605,0.180871,0.000000,-0.896427,0.125354,0.000000
3.550000,1.842377,-0.510152,-1.550773,1.607948,1.000011,-0.190620,-1.502161,-0.902563,1.651553,-1.517768,-7.535229,-2.894885,1.720621,23.551594,-26.037386,-0.108374,0.182084,0.000000,-0.857250,0.116061,0.000000
3.560000,1.858381,-0.500198,-1.552597,1.592851,0.990613,-0.174253,-1.517243,-0.976731,1.621339,-1.497951,-7.296823,-3.144975,2.241946,24.714492,-24.327716,-0.116749,0.183208,0.000000,-0.817538,0.107323,-0.000000
3.570000,1.874234,-0.490342,-1.554259,1.577604,0.980485,-0.158201,-1.532102,-1.048413,1.588683,-1.472963,-7.035760,-3.384564,2.752103,26.893807,-23.239560,-0.124715,0.184244,0.000000,-0.775203,0.098237,0.000000
3.580000,1.889933,-0.480591,-1.555762,1.562210,0.969653,-0.142487,-1.546686,-1.117440,1.553722,-1.442979,-6.771614,-3.602429,3.242301,25.898489,-20.317922,-0.132254,0.185188,0.000000,-0.732899,0.089095,0.000000
3.590000,1.905477,-0.470951,-1.557110,1.546672,0.958145,-0.127133,-1.560946,-1.183846,1.516712,-1.408143,-6.506322,-3.797812,3.723721,27.732118,-19.103469,-0.139375,0.186041,0.000000,-0.691018,0.079958,0.000000
3.600000,1.920866,-0.461430,-1.558306,1.530992,0.945986,-0.112159,-1.574833,-1.247494,1.477799,-1.368567,-6.222366,-3.981503,4.187843,28.451132,-17.286681,-0.146067,0.186802,0.000000,-0.647497,0.070625,-0.000000
3.610000,1.936097,-0.452034,-1.559355,1.515176,0.933204,-0.097583,-1.588293,-1.308299,1.437141,-1.322411,-5.937889,-4.147312,4.676324,29.029230,-15.527198,-0.152328,0.187468,0.000000,-0.604667,0.061041,0.000000
3.620000,1.951169,-0.442768,-1.560259,1.499228,0.919829,-0.083421,-1.601295,-1.366186,1.394940,-1.278453,-5.636596,-4.288861,4.465587,30.625908,-13.121898,-0.158156,0.188041,0.000000,-0.560854,0.052359,0.000000
3.630000,1.966081,-0.433639,-1.561025,1.483152,0.905891,-0.069689,-1.613830,-1.421044,1.351407,-1.225745,-5.338019,-4.416888,6.083410,29.053585,-12.497029,-0.163549,0.188526,0.000000,-0.518235,0.043110,-0.000000
3.640000,1.980832,-0.424652,-1.561655,1.466953,0.891418,-0.056397,-1.625777,-1.472966,1.306642,-1.164012,-5.044027,-4.532038,5.902382,30.318639,-10.196002,-0.168526,0.188913,0.000000,-0.477041,0.033277,0.000000
3.650000,1.995420,-0.415812,-1.562154,1.450638,0.876442,-0.043559,-1.637125,-1.521871,1.260850,-1.104752,-4.737001,-4.623802,6.300868,30.480905,-8.502325,-0.173088,0.189205,0.000000,-0.435500,0.024376,0.000000
3.660000,2.009844,-0.407125,-1.562527,1.434213,0.860991,-0.031183,-1.647864,-1.567722,1.214201,-1.042747,-4.433303,-4.703543,6.593539,30.549918,-6.885033,-0.177241,0.189408,0.000000,-0.395289,0.015580,-0.000000
3.670000,2.024103,-0.398594,-1.562779,1.417683,0.845097,-0.019277,-1.657930,-1.610511,1.166878,-0.968398,-4.123485,-4.756402,7.788481,31.100632,-4.246108,-0.180995,0.189519,0.000000,-0.355703,0.006149,0.000000
3.680000,2.038197,-0.390224,-1.562915,1.401057,0.828791,-0.007847,-1.667246,-1.650208,1.119099,-0.897216,-3.817844,-4.800213,6.427926,30.003794,-4.541703,-0.184360,0.189535,0.000000,-0.317483,-0.002580,-0.000000
3.690000,2.052124,-0.382019,-1.562938,1.384341,0.812103,0.003103,-1.675892,-1.686889,1.070896,-0.830164,-3.517656,-4.836240,7.465416,30.321169,-2.115377,-0.187350,0.189469,0.000000,-0.280708,-0.010549,-0.000000
3.700000,2.065884,-0.373983,-1.562854,1.367542,0.795063,0.013570,-1.683804,-1.720545,1.022467,-0.752140,-3.214241,-4.847439,7.647994,30.049303,-0.690155,-0.189977,0.189318,0.000000,-0.244824,-0.019046,0.000000
3.710000,2.079475,-0.366119,-1.562668,1.350667,0.777702,0.023552,-1.690942,-1.751193,0.973970,-0.675158,-2.916039,-4.850016,7.824476,29.708418,0.655658,-0.192251,0.189083,0.000000,-0.210349,-0.027111,-0.000000
3.720000,2.092897,-0.358430,-1.562385,1.333725,0.760050,0.033050,-1.697295,-1.778868,0.925550,-0.594999,-2.619113,-4.830019,8.124387,29.540276,2.856410,-0.194188,0.188767,0.000000,-0.177130,-0.034921,-0.000000
3.730000,2.106149,-0.350919,-1.562009,1.316724,0.742135,0.042064,-1.702841,-1.803596,0.877389,-0.514403,-2.328076,-4.803112,7.987948,28.653224,2.498957,-0.195799,0.188372,0.000000,-0.145291,-0.042513,-0.000000
3.740000,2.119231,-0.343588,-1.561545,1.299671,0.723987,0.050598,-1.707584,-1.825453,0.829503,-0.433745,-2.043708,-4.770628,8.218395,28.337589,4.467377,-0.197098,0.187900,0.000000,-0.114839,-0.049886,-0.000000
3.750000,2.132143,-0.336440,-1.560998,1.282575,0.705635,0.058656,-1.711507,-1.844479,0.782051,-0.350794,-1.762575,-4.718080,8.288914,27.754574,5.550332,-0.198100,0.187355,0.000000,-0.085674,-0.056993,-0.000000
3.760000,2.144883,-0.329476,-1.560373,1.265444,0.687107,0.066241,-1.714602,-1.860724,0.735155,-0.268167,-1.487388,-4.659756,8.328717,27.146393,6.543265,-0.198816,0.186739,0.000000,-0.057734,-0.063858,-0.000000
3.770000,2.157451,-0.322698,-1.559675,1.248286,0.668430,0.073361,-1.716861,-1.874258,0.688924,-0.183415,-1.220977,-4.583400,8.524282,26.254306,8.288259,-0.199260,0.186053,0.000000,-0.031525,-0.070506,-0.000000
3.780000,2.169848,-0.316108,-1.558908,1.231109,0.649630,0.080022,-1.718274,-1.885160,0.643497,-0.099720,-0.959799,-4.503213,8.207962,25.979112,7.723694,-0.199449,0.185301,0.000000,-0.006326,-0.076898,0.000000
3.790000,2.182073,-0.309706,-1.558076,1.213923,0.630735,0.086233,-1.718861,-1.893471,0.598865,-0.017440,-0.704038,-4.420514,8.338688,25.041620,9.235843,-0.199390,0.184485,0.000000,0.017916,-0.083033,-0.000000
3.800000,2.194127,-0.303493,-1.557185,1.196735,0.611769,0.092003,-1.718617,-1.899276,0.555145,0.066183,-0.457990,-4.322403,8.288513,24.289629,9.943850,-0.199097,0.183608,0.000000,0.040530,-0.088958,-0.000000
3.810000,2.206008,-0.297471,-1.556237,1.179553,0.592758,0.097340,-1.717542,-1.902649,0.512422,0.148637,-0.217910,-4.221295,8.221726,23.526930,10.573882,-0.198582,0.182671,0.000000,0.062209,-0.094665,-0.000000
3.820000,2.217718,-0.291638,-1.555239,1.162387,0.573724,0.102255,-1.715645,-1.903675,0.470764,0.230765,0.010679,-4.108326,8.178741,22.377744,11.709694,-0.197859,0.181677,0.000000,0.082251,-0.100084,0.000000
3.830000,2.229256,-0.285996,-1.554194,1.145243,0.554692,0.106759,-1.712931,-1.902453,0.430259,0.311688,0.233577,-3.993603,8.002277,22.205216,11.214127,-0.196940,0.180630,0.000000,0.101495,-0.105326,-0.000000
3.840000,2.240623,-0.280544,-1.553105,1.128131,0.535683,0.110864,-1.709416,-1.899021,0.390892,0.391203,0.450897,-3.878221,7.920538,21.065249,12.153052,-0.195831,0.179530,0.000000,0.120005,-0.110399,0.000000
3.850000,2.251819,-0.275282,-1.551978,1.111058,0.516718,0.114581,-1.705109,-1.893478,0.352732,0.469855,0.656478,-3.753322,7.785348,20.240759,12.515489,-0.194545,0.178380,0.000000,0.137021,-0.115204,-0.000000
3.860000,2.262844,-0.270210,-1.550815,1.094031,0.497820,0.117922,-1.700022,-1.885910,0.315827,0.547502,0.855869,-3.627301,7.647807,19.421469,12.818725,-0.193093,0.177182,0.000000,0.153300,-0.119891,0.000000
3.870000,2.273700,-0.265326,-1.549621,1.077060,0.479007,0.120901,-1.694172,-1.876405,0.280207,0.621902,1.042917,-3.495858,7.321101,18.196333,13.323855,-0.191484,0.175938,0.000000,0.168183,-0.124164,0.000000
3.880000,2.284386,-0.260629,-1.548398,1.060150,0.460298,0.123531,-1.687585,-1.865069,0.245910,0.695796,1.224175,-3.363878,7.458607,18.061861,13.058414,-0.189731,0.174652,0.000000,0.182436,-0.128395,-0.000000
3.890000,2.294903,-0.256119,-1.547151,1.043311,0.441711,0.125824,-1.680257,-1.851938,0.212927,0.769189,1.399936,-3.232119,7.125967,16.880138,13.421712,-0.187837,0.173323,0.000000,0.196123,-0.132601,0.000000
3.900000,2.305252,-0.251795,-1.545883,1.026548,0.423265,0.127794,-1.672214,-1.837114,0.181282,0.839060,1.563580,-3.096787,6.938106,16.059451,13.499020,-0.185813,0.171954,0.000000,0.208550,-0.136421,-0.000000
3.910000,2.315434,-0.247654,-1.544596,1.009869,0.404974,0.129454,-1.663483,-1.820685,0.150987,0.906808,1.721089,-2.962250,6.720993,15.252437,13.519905,-0.183668,0.170548,0.000000,0.220406,-0.140077,-0.000000
3.920000,2.325450,-0.243695,-1.543295,0.993280,0.386856,0.130818,-1.654077,-1.802735,0.122047,0.974464,1.866895,-2.825481,6.701362,14.095627,13.712744,-0.181409,0.169105,0.000000,0.231099,-0.143723,-0.000000
3.930000,2.335300,-0.239916,-1.541981,0.976789,0.368924,0.131900,-1.644006,-1.783365,0.094471,1.038552,2.006926,-2.690526,6.111579,13.918098,13.267531,-0.179047,0.167626,0.000000,0.241312,-0.147087,0.000000
3.940000,2.344986,-0.236315,-1.540657,0.960402,0.351193,0.132712,-1.633319,-1.762613,0.068227,1.098843,2.141540,-2.557974,6.054011,12.819335,13.350780,-0.176584,0.166116,0.000000,0.251101,-0.150161,-0.000000
3.950000,2.354508,-0.232891,-1.539327,0.944125,0.333676,0.133269,-1.622029,-1.740575,0.043316,1.158693,2.264943,-2.424613,5.806820,12.050022,13.201260,-0.174029,0.164576,0.000000,0.259843,-0.153226,-0.000000
3.960000,2.363869,-0.229641,-1.537993,0.927963,0.316386,0.133583,-1.610156,-1.717332,0.019728,1.215574,2.382406,-2.293309,5.562519,11.298195,13.026749,-0.171389,0.163006,0.000000,0.268121,-0.156081,-0.000000
3.970000,2.373068,-0.226563,-1.536656,0.911924,0.299333,0.133668,-1.597726,-1.692963,-0.002559,1.269875,2.489605,-2.164434,5.303137,10.286236,12.769403,-0.168670,0.161408,0.000000,0.275525,-0.158773,-0.000000
3.980000,2.382108,-0.223654,-1.535320,0.896011,0.282530,0.133536,-1.584766,-1.667558,-0.023567,1.321758,2.591167,-2.037469,5.073388,10.033178,12.619839,-0.165880,0.159785,0.000000,0.282503,-0.161311,-0.000000
3.990000,2.390989,-0.220911,-1.533986,0.880230,0.265986,0.133200,-1.571299,-1.641156,-0.043315,1.371216,2.687442,-1.912656,4.812136,9.080766,12.312177,-0.163021,0.158138,0.000000,0.289097,-0.163699,-0.000000
4.000000,2.399713,-0.218333,-1.532657,0.864586,0.249710,0.132674,-1.557351,-1.613844,-0.061832,1.418055,2.774056,-1.791081,4.561730,8.387974,12.025681,-0.160100,0.156467,0.000000,0.294901,-0.165936,0.000000
4.010000,2.408281,-0.215916,-1.531334,0.849084,0.233712,0.131968,-1.542942,-1.585693,-0.079143,1.463309,2.855027,-1.671680,4.329856,7.713146,11.730311,-0.157124,0.154776,0.000000,0.300289,-0.168106,-0.000000
4.020000,2.416695,-0.213658,-1.530018,0.833729,0.217999,0.131095,-1.528105,-1.556773,-0.095285,1.503192,2.927495,-1.557650,3.801852,6.876197,11.190246,-0.154097,0.153065,0.000000,0.305040,-0.169887,-0.000000
4.030000,2.424956,-0.211555,-1.528712,0.818524,0.202578,0.130066,-1.512879,-1.527160,-0.110302,1.542603,2.994557,-1.445460,4.085556,6.541947,11.249029,-0.151025,0.151337,0.000000,0.309389,-0.171704,-0.000000
4.040000,2.433066,-0.209605,-1.527417,0.803473,0.187458,0.128892,-1.497253,-1.496898,-0.124200,1.581783,3.056513,-1.335092,3.594803,5.758361,10.703781,-0.147910,0.149591,0.000000,0.313366,-0.173579,-0.000000
4.050000,2.441026,-0.207805,-1.526135,0.788580,0.172642,0.127585,-1.481263,-1.466058,-0.137024,1.615834,3.110578,-1.230414,3.371948,5.151051,10.348396,-0.144759,0.147829,0.000000,0.316763,-0.175090,0.000000
4.060000,2.448838,-0.206151,-1.524866,0.773849,0.158138,0.126155,-1.464940,-1.434704,-0.148815,1.648412,3.159224,-1.128349,3.142796,4.557740,9.984941,-0.141576,0.146052,0.000000,0.319765,-0.176547,0.000000
4.070000,2.456503,-0.204641,-1.523612,0.759282,0.143950,0.124612,-1.448303,-1.402895,-0.159610,1.678690,3.201576,-1.031460,2.914861,3.938176,9.467823,-0.138366,0.144263,0.000000,0.322321,-0.177903,0.000000
4.080000,2.464024,-0.203271,-1.522374,0.744883,0.130082,0.122966,-1.431373,-1.370690,-0.169454,1.706751,3.238522,-0.937414,2.697960,3.454681,9.342935,-0.135131,0.142460,0.000000,0.324479,-0.179132,0.000000
4.090000,2.471402,-0.202039,-1.521153,0.730655,0.116537,0.121226,-1.414175,-1.338141,-0.178367,1.732638,3.270269,-0.846150,2.478855,2.874797,8.832760,-0.131877,0.140647,0.000000,0.326257,-0.180236,-0.000000
4.100000,2.478638,-0.200940,-1.519950,0.716601,0.103320,0.119402,-1.396728,-1.305304,-0.186395,1.756354,3.296271,-0.760113,2.266571,2.351264,8.451000,-0.128608,0.138824,0.000000,0.327626,-0.181246,0.000000
4.110000,2.485734,-0.199971,-1.518765,0.702722,0.090432,0.117501,-1.379054,-1.272231,-0.193577,1.778206,3.317545,-0.676880,2.064482,1.850061,8.077902,-0.125326,0.136993,0.000000,0.328648,-0.182156,-0.000000
4.120000,2.492693,-0.199130,-1.517600,0.689020,0.077876,0.115533,-1.361174,-1.238975,-0.199955,1.797299,3.332812,-0.599628,1.793500,1.260866,7.486789,-0.122036,0.135153,0.000000,0.329235,-0.182919,0.000000
4.130000,2.499515,-0.198412,-1.516455,0.675499,0.065653,0.113505,-1.343112,-1.205588,-0.205577,1.814901,3.343967,-0.524744,1.728885,0.974642,7.494079,-0.118742,0.133307,0.000000,0.329517,-0.183606,-0.000000
4.140000,2.506203,-0.197816,-1.515330,0.662159,0.053764,0.111424,-1.324880,-1.172108,-0.210456,1.831121,3.351256,-0.452035,1.477375,0.430695,6.933640,-0.115447,0.131455,0.000000,0.329513,-0.184226,0.000000
4.150000,2.512759,-0.197336,-1.514226,0.649002,0.042211,0.109298,-1.306499,-1.138582,-0.214639,1.844790,3.353105,-0.385081,1.296925,-0.003144,6.573182,-0.112153,0.129598,0.000000,0.329105,-0.184707,-0.000000
4.160000,2.519184,-0.196970,-1.513144,0.636029,0.030993,0.107133,-1.287989,-1.105058,-0.218165,1.856895,3.350977,-0.320638,1.120816,-0.423764,6.222453,-0.108866,0.127738,0.000000,0.328392,-0.185101,-0.000000
4.170000,2.525480,-0.196715,-1.512084,0.623242,0.020109,0.104937,-1.269367,-1.071577,-0.221071,1.867188,3.344645,-0.261472,0.942838,-0.836131,5.703204,-0.105586,0.125875,0.000000,0.327375,-0.185415,0.000000
4.180000,2.531650,-0.196567,-1.511046,0.610642,0.009561,0.102714,-1.250651,-1.038179,-0.223401,1.875861,3.334391,-0.204630,0.793096,-1.211838,5.669529,-0.102319,0.124009,0.000000,0.326045,-0.185629,-0.000000
4.190000,2.537694,-0.196523,-1.510030,0.598230,-0.000655,0.100471,-1.231855,-1.004902,-0.225170,1.882987,3.320378,-0.149898,0.629042,-1.592259,5.186254,-0.099067,0.122143,0.000000,0.324412,-0.185745,0.000000
4.200000,2.543615,-0.196579,-1.509036,0.586005,-0.010538,0.098212,-1.212997,-0.971784,-0.226417,1.888489,3.302630,-0.100092,0.477839,-1.950736,4.868710,-0.095832,0.120276,0.000000,0.322498,-0.185786,-0.000000
4.210000,2.549414,-0.196732,-1.508065,0.573970,-0.020091,0.095944,-1.194090,-0.938862,-0.227178,1.892694,3.281151,-0.052496,0.336617,-2.299367,4.565283,-0.092618,0.118410,0.000000,0.320272,-0.185751,-0.000000
4.220000,2.555095,-0.196980,-1.507117,0.562124,-0.029316,0.093670,-1.175150,-0.906168,-0.227484,1.894988,3.257091,-0.009551,0.150161,-2.552183,4.109897,-0.089427,0.116546,0.000000,0.317865,-0.185604,-0.000000
4.230000,2.560658,-0.197318,-1.506192,0.550467,-0.038215,0.091396,-1.156193,-0.873733,-0.227375,1.896286,3.229273,0.031511,0.111390,-3.010356,4.106989,-0.086262,0.114683,0.000000,0.315130,-0.185400,0.000000
4.240000,2.566105,-0.197743,-1.505289,0.539000,-0.046791,0.089124,-1.137227,-0.841596,-0.226859,1.896693,3.197784,0.070919,-0.056066,-3.242550,3.691386,-0.083125,0.112824,0.000000,0.312069,-0.185146,0.000000
4.250000,2.571438,-0.198252,-1.504410,0.527722,-0.055048,0.086860,-1.118265,-0.809784,-0.225972,1.895418,3.164109,0.106100,-0.170753,-3.532204,3.431794,-0.080021,0.110968,0.000000,0.308847,-0.184790,0.000000
4.260000,2.576660,-0.198843,-1.503552,0.516634,-0.062988,0.084606,-1.099321,-0.778323,-0.224742,1.893324,3.127525,0.139526,-0.277169,-3.802380,3.186215,-0.076949,0.109116,0.000000,0.305367,-0.184387,-0.000000
4.270000,2.581772,-0.199511,-1.502717,0.505736,-0.070616,0.082366,-1.080405,-0.747243,-0.223195,1.889616,3.087925,0.169228,-0.433919,-4.095712,2.823285,-0.073914,0.107270,0.000000,0.301629,-0.183879,0.000000
4.280000,2.586775,-0.200254,-1.501905,0.495026,-0.077935,0.080143,-1.061530,-0.716572,-0.221362,1.885286,3.046067,0.197437,-0.430075,-4.272791,2.822569,-0.070917,0.105429,0.000000,0.297686,-0.183336,0.000000
4.290000,2.591673,-0.201069,-1.501114,0.484505,-0.084949,0.077940,-1.042700,-0.686329,-0.219250,1.880439,3.002121,0.224363,-0.568187,-4.533728,2.496768,-0.067961,0.103594,0.000000,0.293553,-0.182767,0.000000
4.300000,2.596466,-0.201952,-1.500346,0.474172,-0.091663,0.075759,-1.023927,-0.656539,-0.216887,1.874194,2.955607,0.247991,-0.649974,-4.747324,2.297635,-0.065047,0.101765,0.000000,0.289191,-0.182102,0.000000
4.310000,2.601157,-0.202901,-1.499599,0.464026,-0.098081,0.073603,-1.005218,-0.627223,-0.214294,1.867414,2.907121,0.270234,-0.725538,-4.948331,2.110170,-0.062178,0.099944,0.000000,0.284644,-0.181407,-0.000000
4.320000,2.605747,-0.203913,-1.498874,0.454067,-0.104209,0.071474,-0.986582,-0.598403,-0.211492,1.859513,2.856678,0.289837,-0.833968,-5.137236,1.853808,-0.059355,0.098130,0.000000,0.279918,-0.180633,-0.000000
4.330000,2.610239,-0.204984,-1.498170,0.444294,-0.110051,0.069373,-0.968029,-0.570096,-0.208501,1.851171,2.804437,0.308220,-0.832960,-5.308639,1.825829,-0.056580,0.096325,0.000000,0.275018,-0.179833,0.000000
4.340000,2.614634,-0.206113,-1.497486,0.434706,-0.115612,0.067304,-0.949560,-0.542319,-0.205330,1.842467,2.750534,0.325549,-0.927022,-5.470660,1.599740,-0.053855,0.094528,0.000000,0.269953,-0.179011,-0.000000
4.350000,2.618933,-0.207296,-1.496823,0.425303,-0.120899,0.065267,-0.931183,-0.515090,-0.201999,1.832815,2.695074,0.340602,-0.982444,-5.618302,1.454804,-0.051181,0.092740,0.000000,0.264741,-0.178121,0.000000
4.360000,2.623140,-0.208530,-1.496181,0.416082,-0.125916,0.063265,-0.912905,-0.488423,-0.198521,1.822861,2.638220,0.354626,-1.032006,-5.752768,1.320780,-0.048561,0.090961,0.000000,0.259386,-0.177214,-0.000000
4.370000,2.627256,-0.209813,-1.495558,0.407044,-0.130669,0.061297,-0.894730,-0.462330,-0.194913,1.811963,2.580040,0.366764,-1.123324,-5.878845,1.138449,-0.045994,0.089192,0.000000,0.253901,-0.176232,-0.000000
4.380000,2.631282,-0.211142,-1.494955,0.398188,-0.135165,0.059367,-0.876666,-0.436826,-0.191189,1.800905,2.520732,0.378056,-1.086972,-5.980462,1.122353,-0.043483,0.087433,0.000000,0.248297,-0.175242,-0.000000
4.390000,2.635220,-0.212515,-1.494371,0.389511,-0.139408,0.057474,-0.858712,-0.411919,-0.187354,1.789754,2.460426,0.388633,-1.166748,-6.081066,0.964220,-0.041029,0.085684,0.000000,0.242585,-0.174250,0.000000
4.400000,2.639073,-0.213930,-1.493805,0.381013,-0.143405,0.055620,-0.840874,-0.387620,-0.183422,1.777787,2.399171,0.397618,-1.202847,-6.165577,0.865094,-0.038632,0.083945,0.000000,0.236774,-0.173191,0.000000
4.410000,2.642841,-0.215383,-1.493258,0.372693,-0.147162,0.053806,-0.823158,-0.363938,-0.179404,1.765348,2.337192,0.405785,-1.242879,-6.237188,0.771811,-0.036293,0.082217,0.000000,0.230882,-0.172092,-0.000000
4.420000,2.646527,-0.216872,-1.492729,0.364549,-0.150686,0.052032,-0.805565,-0.340879,-0.175309,1.753318,2.274384,0.413100,-1.203125,-6.313685,0.690114,-0.034014,0.080501,0.000000,0.224897,-0.171039,0.000000
4.430000,2.650132,-0.218396,-1.492217,0.356581,-0.153982,0.050300,-0.788094,-0.318452,-0.171145,1.740446,2.211139,0.419563,-1.372367,-6.333183,0.603401,-0.031796,0.078795,0.000000,0.218859,-0.169909,-0.000000
4.440000,2.653659,-0.219951,-1.491723,0.348787,-0.157057,0.048609,-0.770759,-0.296658,-0.166920,1.726692,2.147583,0.425235,-1.337361,-6.384882,0.534323,-0.029637,0.077101,0.000000,0.212779,-0.168695,0.000000
4.450000,2.657109,-0.221536,-1.491245,0.341166,-0.159917,0.046962,-0.753558,-0.275502,-0.162642,1.713359,2.083553,0.430251,-1.369776,-6.410577,0.467449,-0.027540,0.075419,0.000000,0.206639,-0.167525,0.000000
4.460000,2.660483,-0.223149,-1.490783,0.333715,-0.162569,0.045357,-0.736494,-0.254987,-0.158318,1.699546,2.019417,0.434603,-1.397734,-6.424801,0.405851,-0.025505,0.073749,0.000000,0.200477,-0.166311,-0.000000
4.470000,2.663784,-0.224787,-1.490338,0.326435,-0.165019,0.043795,-0.719569,-0.235114,-0.153952,1.685361,1.955001,0.438405,-1.434005,-6.446973,0.353241,-0.023531,0.072092,0.000000,0.194274,-0.165062,0.000000
4.480000,2.667012,-0.226449,-1.489907,0.319324,-0.167274,0.042278,-0.702787,-0.215886,-0.149551,1.670972,1.890715,0.441640,-1.443614,-6.408248,0.294439,-0.021619,0.070447,0.000000,0.188072,-0.163793,-0.000000
4.490000,2.670171,-0.228132,-1.489492,0.312379,-0.169339,0.040804,-0.686150,-0.197299,-0.145121,1.656392,1.826674,0.444349,-1.477122,-6.407904,0.250166,-0.019769,0.068815,0.000000,0.181881,-0.162506,-0.000000
4.500000,2.673260,-0.229835,-1.489091,0.305600,-0.171222,0.039376,-0.669660,-0.179353,-0.140666,1.641471,1.762671,0.446638,-1.501892,-6.381266,0.206049,-0.017982,0.067197,0.000000,0.175682,-0.161184,0.000000
4.510000,2.676283,-0.231556,-1.488704,0.298985,-0.172928,0.037991,-0.653321,-0.162044,-0.136190,1.626455,1.699080,0.448481,-1.524107,-6.344655,0.165130,-0.016256,0.065591,0.000000,0.169511,-0.159853,-0.000000
4.520000,2.679241,-0.233293,-1.488331,0.292533,-0.174465,0.036652,-0.637134,-0.145371,-0.131697,1.610780,1.635724,0.449969,-1.588741,-6.316112,0.130919,-0.014591,0.064000,0.000000,0.163351,-0.158454,0.000000
4.530000,2.682134,-0.235044,-1.487971,0.286242,-0.175838,0.035357,-0.621105,-0.129328,-0.127192,1.595140,1.572976,0.451065,-1.538639,-6.231736,0.088696,-0.012988,0.062422,0.000000,0.157240,-0.157058,-0.000000
4.540000,2.684966,-0.236809,-1.487624,0.280111,-0.177053,0.034108,-0.605231,-0.113909,-0.122677,1.579561,1.510936,0.451790,-1.599602,-6.183866,0.058538,-0.011446,0.060858,0.000000,0.151187,-0.155667,0.000000
4.550000,2.687737,-0.238585,-1.487289,0.274137,-0.178118,0.032904,-0.589516,-0.099108,-0.118157,1.563328,1.449403,0.452223,-1.624409,-6.112386,0.026461,-0.009965,0.059309,0.000000,0.145173,-0.154208,-0.000000
4.560000,2.690449,-0.240371,-1.486966,0.268320,-0.179038,0.031745,-0.573965,-0.084918,-0.113634,1.546833,1.388720,0.452195,-1.654067,-6.032528,-0.007011,-0.008543,0.057774,0.000000,0.139232,-0.152722,0.000000
4.570000,2.693104,-0.242165,-1.486654,0.262657,-0.179818,0.030631,-0.558579,-0.071331,-0.109112,1.530434,1.328690,0.452315,-1.646263,-5.962939,0.006872,-0.007180,0.056254,0.000000,0.133345,-0.151240,-0.000000
4.580000,2.695703,-0.243967,-1.486353,0.257148,-0.180466,0.029563,-0.543358,-0.058340,-0.104590,1.513475,1.269679,0.451828,-1.746459,-5.837846,-0.104946,-0.005875,0.054749,0.000000,0.127549,-0.149702,-0.000000
4.590000,2.698248,-0.245774,-1.486062,0.251789,-0.180987,0.028539,-0.528311,-0.045934,-0.100078,1.495908,1.211769,0.450705,-1.746707,-5.752398,-0.095268,-0.004628,0.053260,0.000000,0.121853,-0.148101,-0.000000
4.600000,2.700739,-0.247586,-1.485782,0.246581,-0.181387,0.027561,-0.513440,-0.034102,-0.095575,1.478356,1.154732,0.449716,-1.784301,-5.644689,-0.126906,-0.003438,0.051787,0.000000,0.116234,-0.146497,-0.000000
4.610000,2.703180,-0.249401,-1.485511,0.241520,-0.181671,0.026628,-0.498746,-0.022835,-0.091085,1.460270,1.098882,0.448236,-1.823996,-5.530852,-0.158493,-0.002303,0.050330,0.000000,0.110724,-0.144838,-0.000000
4.620000,2.705570,-0.251219,-1.485249,0.236605,-0.181845,0.025739,-0.484235,-0.012121,-0.086611,1.441952,1.044074,0.446642,-1.849126,-5.423500,-0.170724,-0.001223,0.048890,0.000000,0.105308,-0.143151,0.000000
4.630000,2.707912,-0.253038,-1.484996,0.231835,-0.181915,0.024895,-0.469909,-0.001949,-0.082154,1.423090,0.990561,0.444602,-1.924155,-5.278066,-0.237795,-0.000197,0.047468,0.000000,0.100013,-0.141406,0.000000
4.640000,2.710207,-0.254857,-1.484751,0.227206,-0.181886,0.024096,-0.455775,0.007695,-0.077720,1.403640,0.938402,0.442091,-1.957221,-5.159386,-0.254030,0.000777,0.046062,0.000000,0.094845,-0.139600,0.000000
4.650000,2.712457,-0.256675,-1.484514,0.222718,-0.181763,0.023341,-0.441837,0.016823,-0.073313,1.383862,0.887441,0.439430,-2.008600,-5.025604,-0.289093,0.001700,0.044676,0.000000,0.089788,-0.137757,0.000000
4.660000,2.714662,-0.258492,-1.484284,0.218369,-0.181551,0.022630,-0.428100,0.025448,-0.068934,1.363442,0.837895,0.436294,-2.064293,-4.887719,-0.326356,0.002574,0.043308,0.000000,0.084865,-0.135846,-0.000000
4.670000,2.716825,-0.260306,-1.484061,0.214156,-0.181256,0.021962,-0.414569,0.033585,-0.064587,1.342671,0.789656,0.433006,-2.101840,-4.754950,-0.343053,0.003398,0.041959,0.000000,0.080065,-0.133895,0.000000
4.680000,2.718946,-0.262117,-1.483845,0.210077,-0.180881,0.021338,-0.401249,0.041246,-0.060275,1.321157,0.742900,0.429185,-2.201921,-4.595594,-0.422016,0.004175,0.040630,0.000000,0.075407,-0.131865,-0.000000
4.690000,2.721027,-0.263924,-1.483634,0.206130,-0.180432,0.020757,-0.388149,0.048448,-0.056005,1.298848,0.697662,0.424792,-2.249124,-4.456132,-0.445129,0.004907,0.039322,0.000000,0.070894,-0.129752,0.000000
4.700000,2.723069,-0.265725,-1.483430,0.202313,-0.179914,0.020218,-0.375274,0.055204,-0.051780,1.276062,0.653824,0.420180,-2.319760,-4.306709,-0.489801,0.005594,0.038035,0.000000,0.066514,-0.127587,0.000000
4.710000,2.725073,-0.267522,-1.483230,0.198624,-0.179330,0.019721,-0.362631,0.061530,-0.047604,1.252391,0.611525,0.414893,-2.395668,-4.155514,-0.539465,0.006238,0.036770,0.000000,0.062283,-0.125328,-0.000000
4.720000,2.727042,-0.269312,-1.483035,0.195060,-0.178685,0.019265,-0.350227,0.067439,-0.043482,1.228314,0.570694,0.409647,-2.439312,-4.007918,-0.537831,0.006840,0.035529,0.000000,0.058193,-0.123022,0.000000
4.730000,2.728975,-0.271095,-1.482844,0.191618,-0.177982,0.018851,-0.338068,0.072949,-0.039414,1.203196,0.531424,0.403543,-2.585475,-3.846000,-0.684314,0.007402,0.034310,0.000000,0.054254,-0.120607,-0.000000
4.740000,2.730874,-0.272871,-1.482658,0.188297,-0.177227,0.018477,-0.326167,0.078073,-0.035414,1.176972,0.493724,0.396517,-2.640998,-3.696524,-0.693179,0.007925,0.033117,0.000000,0.050467,-0.118078,-0.000000
4.750000,2.732741,-0.274639,-1.482475,0.185094,-0.176422,0.018142,-0.314530,0.082828,-0.031484,1.150197,0.457515,0.389428,-2.733158,-3.542663,-0.752570,0.008412,0.031949,0.000000,0.046825,-0.115486,0.000000
4.760000,2.734577,-0.276399,-1.482295,0.182006,-0.175571,0.017847,-0.303167,0.087229,-0.027628,1.122290,0.422863,0.381560,-2.830074,-3.389265,-0.813301,0.008862,0.030807,0.000000,0.043335,-0.112775,0.000000
4.770000,2.736382,-0.278151,-1.482118,0.179030,-0.174679,0.017590,-0.292086,0.091290,-0.023854,1.093756,0.389714,0.373227,-2.895641,-3.239338,-0.861578,0.009279,0.029693,0.000000,0.039991,-0.109994,-0.000000
4.780000,2.738158,-0.279893,-1.481943,0.176163,-0.173747,0.017370,-0.281296,0.095028,-0.020166,1.063978,0.358099,0.364159,-3.061189,-3.083831,-0.952707,0.009663,0.028608,0.000000,0.036798,-0.107083,-0.000000
4.790000,2.739905,-0.281626,-1.481770,0.173403,-0.172779,0.017186,-0.270811,0.098457,-0.016573,1.032890,0.328005,0.354321,-3.138564,-2.936820,-1.007288,0.010015,0.027552,0.000000,0.033753,-0.104034,-0.000000
4.800000,2.741626,-0.283348,-1.481599,0.170746,-0.171779,0.017038,-0.260641,0.101593,-0.013081,1.001036,0.299367,0.343940,-3.251538,-2.789814,-1.077176,0.010338,0.026527,0.000000,0.030852,-0.100901,-0.000000
4.810000,2.743321,-0.285061,-1.481429,0.168189,-0.170748,0.016924,-0.250795,0.104450,-0.009698,0.967818,0.272197,0.332514,-3.368142,-2.645517,-1.155608,0.010633,0.025534,0.000000,0.028094,-0.097625,0.000000
4.820000,2.744990,-0.286763,-1.481260,0.165729,-0.169690,0.016843,-0.241286,0.107042,-0.006430,0.933926,0.246439,0.321287,-3.437659,-2.505985,-1.139889,0.010901,0.024575,0.000000,0.025476,-0.094272,0.000000
4.830000,2.746636,-0.288455,-1.481092,0.163362,-0.168608,0.016795,-0.232122,0.109383,-0.003278,0.898492,0.222082,0.308668,-3.650476,-2.365906,-1.385571,0.011143,0.023649,0.000000,0.022996,-0.090758,0.000000
4.840000,2.748258,-0.290135,-1.480924,0.161085,-0.167504,0.016777,-0.223322,0.111488,-0.000262,0.861449,0.199090,0.294574,-3.731508,-2.233992,-1.383403,0.011361,0.022760,0.000000,0.020650,-0.087077,0.000000
4.850000,2.749858,-0.291805,-1.480757,0.158895,-0.166379,0.016789,-0.214895,0.113369,0.002615,0.823617,0.177394,0.280568,-3.861613,-2.105267,-1.467634,0.011556,0.021908,0.000000,0.018433,-0.083307,0.000000
4.860000,2.751436,-0.293463,-1.480589,0.156786,-0.165237,0.016829,-0.206854,0.115040,0.005346,0.784350,0.156964,0.265483,-3.992198,-1.981646,-1.549471,0.011730,0.021094,0.000000,0.016341,-0.079386,0.000000
4.870000,2.752994,-0.295109,-1.480420,0.154756,-0.164079,0.016896,-0.199213,0.116513,0.007922,0.743765,0.137743,0.249577,-4.125004,-1.863529,-1.631910,0.011884,0.020321,0.000000,0.014368,-0.075324,0.000000
4.880000,2.754531,-0.296744,-1.480251,0.152801,-0.162907,0.016987,-0.191983,0.117799,0.010335,0.701843,0.119673,0.232844,-4.259751,-1.751381,-1.714634,0.012018,0.019588,0.000000,0.012510,-0.071121,0.000000
4.890000,2.756050,-0.298368,-1.480080,0.150915,-0.161724,0.017102,-0.185180,0.118910,0.012576,0.658565,0.102694,0.215284,-4.396128,-1.645668,-1.797283,0.012134,0.018899,0.000000,0.010760,-0.066774,0.000000
4.900000,2.757550,-0.299979,-1.479909,0.149095,-0.160530,0.017238,-0.178817,0.119856,0.014638,0.613908,0.086738,0.196895,-4.534598,-1.546811,-1.880001,0.012233,0.018253,0.000000,0.009112,-0.062281,0.000000
4.910000,2.759032,-0.301578,-1.479735,0.147337,-0.159327,0.017394,-0.172907,0.120648,0.016511,0.567866,0.071733,0.177685,-4.674043,-1.455321,-1.961969,0.012317,0.017653,0.000000,0.007558,-0.057641,0.000000
4.920000,2.760497,-0.303165,-1.479561,0.145636,-0.158117,0.017568,-0.167464,0.121294,0.018189,0.520424,0.057605,0.157659,-4.814557,-1.371642,-2.043088,0.012385,0.017101,0.000000,0.006092,-0.052854,-0.000000
4.930000,2.761945,-0.304740,-1.479384,0.143986,-0.156902,0.017757,-0.162503,0.121802,0.019662,0.471572,0.044273,0.136827,-4.955905,-1.296231,-2.123063,0.012439,0.016597,0.000000,0.004704,-0.047918,-0.000000
4.940000,2.763377,-0.306303,-1.479205,0.142384,-0.155682,0.017960,-0.158037,0.122181,0.020922,0.421304,0.031651,0.115202,-5.097850,-1.229543,-2.201624,0.012479,0.016143,0.000000,0.003388,-0.042834,0.000000
4.950000,2.764793,-0.307854,-1.479025,0.140824,-0.154458,0.018175,-0.154082,0.122437,0.021963,0.369613,0.019651,0.092800,-5.240229,-1.172071,-2.278438,0.012507,0.015741,0.000000,0.002133,-0.037600,-0.000000
4.960000,2.766193,-0.309393,-1.478842,0.139301,-0.153233,0.018399,-0.150650,0.122576,0.022776,0.316498,0.008178,0.069640,-5.382709,-1.124242,-2.353247,0.012522,0.015391,0.000000,0.000931,-0.032218,0.000000
4.970000,2.767579,-0.310919,-1.478657,0.137809,-0.152007,0.018629,-0.147756,0.122602,0.023353,0.261959,-0.002867,0.045743,-5.525090,-1.086529,-2.425750,0.012525,0.015097,0.000000,-0.000229,-0.026688,-0.000000
4.980000,2.768949,-0.312433,-1.478469,0.136344,-0.150781,0.018865,-0.145415,0.122520,0.023688,0.205998,-0.013588,0.021134,-5.667116,-1.059393,-2.495650,0.012517,0.014858,0.000000,-0.001357,-0.021011,0.000000
4.990000,2.770306,-0.313934,-1.478279,0.134899,-0.149557,0.019102,-0.143641,0.122331,0.023774,0.148619,-0.024092,-0.004160,-5.808493,-1.043293,-2.562621,0.012498,0.014677,0.000000,-0.002464,-0.015188,0.000000
5.000000,2.771647,-0.315424,-1.478087,0.133469,-0.148335,0.019340,-0.142448,0.122038,0.023603,0.089831,-0.034492,-0.030108,-5.948867,-1.038693,-2.626261,0.012468,0.014555,0.000000,-0.003560,-0.009221,0.000000
